lot_tag,auct_type,object_type,cadastr_num,adm_area,mun_district,addr_norm,flat_num,qty_rooms,addr_floor,total_floors,is_total_floors_variable,obj_square,start_price,start_price_m2,deposit,auct_step,auct_form,start_applications_date,finish_application_date,participant_selection_date,bidding_date,results_date,inf_sales,inf_food_service,inf_education,inf_cult_and_sport,inf_consumer_services,inf_health_care,geo_lat,geo_lon,overlap_material,skeleton,wall_material,category,residents_qty,construction_year,ceiling_height,passenger_elevators_qty,condition,gkh_metro_station,metro_km,metro_min,code_KLADR,global_repair_date,is_renov,renov_period,documentation_expl,documentation_photo,roseltorg_url,torgi_url,investmoscow_url,building_page_url
#ГП16938155,Продажа,Квартира,77:10:0002006:4881,Зеленоградский,Старое Крюково,"г. Москва, г. Зеленоград, к. 848",22.0,2,5,19.0,0.0,60.0,9824000,163733.33,491200,98240,Открытый аукцион в электронной форме,2023-09-28,2023-10-31,2023-11-02,2023-11-07,2023-11-07,67,5,2,30,16,2,55.97722,37.18535,Железобетонные,Монолитный,Нет данных,Нет данных,-1.0,2013.0,-1.0,2.0,Исправный,Зеленоград,0.9,13.0,7700000200000.0,Нет данных,0.0,0.0,Нет данных,Нет данных,https://www.roseltorg.ru/procedure/21000005000000015650,https://torgi.gov.ru/new/public/notices/view/21000005000000015650,https://investmoscow.ru/tenders/tender/19320513,https://flatinfo.ru/h_info1.asp?hid=339447
#ГП16938193,Продажа,Квартира,77:10:0002006:4977,Зеленоградский,Старое Крюково,"г. Москва, г. Зеленоград, к. 848",149.0,2,5,19.0,0.0,53.8,8611000,160055.76,430550,86110,Открытый аукцион в электронной форме,2023-09-28,2023-10-31,2023-11-02,2023-11-07,2023-11-07,67,5,2,30,16,2,55.97722,37.18535,Железобетонные,Монолитный,Нет данных,Нет данных,-1.0,2013.0,-1.0,2.0,Исправный,Зеленоград,0.9,13.0,7700000200000.0,Нет данных,0.0,0.0,Нет данных,Нет данных,https://www.roseltorg.ru/procedure/21000005000000015653,https://torgi.gov.ru/new/public/notices/view/21000005000000015653,https://investmoscow.ru/tenders/tender/19321648,https://flatinfo.ru/h_info1.asp?hid=339447
#ГП16938192,Продажа,Квартира,77:10:0002006:4986,Зеленоградский,Старое Крюково,"г. Москва, г. Зеленоград, к. 848",34.0,2,6,19.0,0.0,56.2,8449000,150338.08,422450,84490,Открытый аукцион в электронной форме,2023-09-28,2023-10-31,2023-11-02,2023-11-07,2023-11-07,67,5,2,30,16,2,55.97722,37.18535,Железобетонные,Монолитный,Нет данных,Нет данных,-1.0,2013.0,-1.0,2.0,Исправный,Зеленоград,0.9,13.0,7700000200000.0,Нет данных,0.0,0.0,Нет данных,Нет данных,https://www.roseltorg.ru/procedure/21000005000000015652,https://torgi.gov.ru/new/public/notices/view/21000005000000015652,https://investmoscow.ru/tenders/tender/19321525,https://flatinfo.ru/h_info1.asp?hid=339447
#ГП16938194,Продажа,Квартира,77:10:0002006:4976,Зеленоградский,Старое Крюково,"г. Москва, г. Зеленоград, к. 848",145.0,2,4,19.0,0.0,72.6,10593000,145909.09,529650,105930,Открытый аукцион в электронной форме,2023-09-28,2023-10-31,2023-11-02,2023-11-07,2023-11-07,67,5,2,30,16,2,55.97722,37.18535,Железобетонные,Монолитный,Нет данных,Нет данных,-1.0,2013.0,-1.0,2.0,Исправный,Зеленоград,0.9,13.0,7700000200000.0,Нет данных,0.0,0.0,Нет данных,Нет данных,https://www.roseltorg.ru/procedure/21000005000000015636,https://torgi.gov.ru/new/public/notices/view/21000005000000015636,https://investmoscow.ru/tenders/tender/19321905,https://flatinfo.ru/h_info1.asp?hid=339447
#ГП16938191,Продажа,Квартира,77:10:0002006:4906,Зеленоградский,Старое Крюково,"г. Москва, г. Зеленоград, к. 848",27.0,2,5,19.0,0.0,56.1,8434000,150338.68,421700,84340,Открытый аукцион в электронной форме,2023-09-28,2023-10-31,2023-11-02,2023-11-07,2023-11-07,67,5,2,30,16,2,55.97722,37.18535,Железобетонные,Монолитный,Нет данных,Нет данных,-1.0,2013.0,-1.0,2.0,Исправный,Зеленоград,0.9,13.0,7700000200000.0,Нет данных,0.0,0.0,Нет данных,Нет данных,https://www.roseltorg.ru/procedure/21000005000000015639,https://torgi.gov.ru/new/public/notices/view/21000005000000015639,https://investmoscow.ru/tenders/tender/19321398,https://flatinfo.ru/h_info1.asp?hid=339447
#ГП16938305,Продажа,Квартира,77:10:0002006:4930,Зеленоградский,Старое Крюково,"г. Москва, г. Зеленоград, к. 848",102.0,1,16,19.0,0.0,44.9,7862000,175100.22,393100,78620,Открытый аукцион в электронной форме,2023-10-04,2023-11-07,2023-11-14,2023-11-17,2023-11-17,67,5,2,30,16,2,55.97722,37.18535,Железобетонные,Монолитный,Нет данных,Нет данных,-1.0,2013.0,-1.0,2.0,Исправный,Зеленоград,0.9,13.0,7700000200000.0,Нет данных,0.0,0.0,Нет данных,Нет данных,https://www.roseltorg.ru/procedure/21000005000000015748,https://torgi.gov.ru/new/public/notices/view/21000005000000015748,https://investmoscow.ru/tenders/tender/19325015,https://flatinfo.ru/h_info1.asp?hid=339447
#ГП16938276,Продажа,Квартира,77:10:0002006:5035,Зеленоградский,Старое Крюково,"г. Москва, г. Зеленоград, к. 848",190.0,2,11,19.0,0.0,62.4,9819000,157355.77,490950,98190,Открытый аукцион в электронной форме,2023-10-04,2023-11-07,2023-11-14,2023-11-17,2023-11-17,67,5,2,30,16,2,55.97722,37.18535,Железобетонные,Монолитный,Нет данных,Нет данных,-1.0,2013.0,-1.0,2.0,Исправный,Зеленоград,0.9,13.0,7700000200000.0,Нет данных,0.0,0.0,Нет данных,Нет данных,https://www.roseltorg.ru/procedure/21000005000000015703,https://torgi.gov.ru/new/public/notices/view/21000005000000015703,https://investmoscow.ru/tenders/tender/19324350,https://flatinfo.ru/h_info1.asp?hid=339447
#ГП16938308,Продажа,Квартира,77:10:0002006:4925,Зеленоградский,Старое Крюково,"г. Москва, г. Зеленоград, к. 848",108.0,2,17,19.0,0.0,60.6,8852000,146072.61,442600,88520,Открытый аукцион в электронной форме,2023-10-04,2023-11-07,2023-11-14,2023-11-17,2023-11-17,67,5,2,30,16,2,55.97722,37.18535,Железобетонные,Монолитный,Нет данных,Нет данных,-1.0,2013.0,-1.0,2.0,Исправный,Зеленоград,0.9,13.0,7700000200000.0,Нет данных,0.0,0.0,Нет данных,Нет данных,https://www.roseltorg.ru/procedure/21000005000000015702,https://torgi.gov.ru/new/public/notices/view/21000005000000015702,https://investmoscow.ru/tenders/tender/19325639,https://flatinfo.ru/h_info1.asp?hid=339447
#ГП16938343,Продажа,Квартира,77:10:0002006:4955,Зеленоградский,Старое Крюково,"г. Москва, г. Зеленоград, к. 848",15.0,2,4,19.0,0.0,60.3,10377000,172089.55,518850,103770,Открытый аукцион в электронной форме,2023-10-05,2023-11-10,2023-11-17,2023-11-21,2023-11-21,67,5,2,30,16,2,55.97722,37.18535,Железобетонные,Монолитный,Нет данных,Нет данных,-1.0,2013.0,-1.0,2.0,Исправный,Зеленоград,0.9,13.0,7700000200000.0,Нет данных,0.0,0.0,Нет данных,Нет данных,https://www.roseltorg.ru/procedure/21000005000000015802,https://torgi.gov.ru/new/public/notices/view/21000005000000015802,https://investmoscow.ru/tenders/tender/19327141,https://flatinfo.ru/h_info1.asp?hid=339447
#ГП16938414,Продажа,Квартира,77:10:0002006:5017,Зеленоградский,Старое Крюково,"г. Москва, г. Зеленоград, к. 848",70.0,2,11,19.0,0.0,59.4,8703000,146515.15,435150,87030,Открытый аукцион в электронной форме,2023-10-05,2023-11-10,2023-11-17,2023-11-21,2023-11-21,67,5,2,30,16,2,55.97722,37.18535,Железобетонные,Монолитный,Нет данных,Нет данных,-1.0,2013.0,-1.0,2.0,Исправный,Зеленоград,0.9,13.0,7700000200000.0,Нет данных,0.0,0.0,Нет данных,Нет данных,https://www.roseltorg.ru/procedure/21000005000000015773,https://torgi.gov.ru/new/public/notices/view/21000005000000015773,https://investmoscow.ru/tenders/tender/19332056,https://flatinfo.ru/h_info1.asp?hid=339447
#ГП16939044,Продажа,Квартира,77:10:0002006:4963,Зеленоградский,Старое Крюково,"г. Москва, г. Зеленоград, к. 848",17.0,2,4,19.0,0.0,60.7,9849000,162257.0,492450,98490,Открытый аукцион в электронной форме,2023-10-17,2023-11-17,2023-11-24,2023-11-28,2023-11-28,67,5,2,30,16,2,55.97722,37.18535,Железобетонные,Монолитный,Нет данных,Нет данных,-1.0,2013.0,-1.0,2.0,Исправный,Зеленоград,0.9,13.0,7700000200000.0,Нет данных,0.0,0.0,Нет данных,Нет данных,https://www.roseltorg.ru/procedure/21000005000000016056,https://torgi.gov.ru/new/public/notices/view/21000005000000016056,https://investmoscow.ru/tenders/tender/19361960,https://flatinfo.ru/h_info1.asp?hid=339447
#ГП16936789,Продажа,Квартира,77:10:0002006:5102,Зеленоградский,Старое Крюково,"г. Москва, г. Зеленоград, к. 848",199.0,2,12,19.0,0.0,62.2,10346000,166334.41,517300,103460,Открытый аукцион в электронной форме,2023-10-18,2023-11-20,2023-11-27,2023-11-30,2023-11-30,67,5,2,30,16,2,55.97722,37.18535,Железобетонные,Монолитный,Нет данных,Нет данных,-1.0,2013.0,-1.0,2.0,Исправный,Зеленоград,0.9,13.0,7700000200000.0,Нет данных,0.0,0.0,Нет данных,Нет данных,https://www.roseltorg.ru/procedure/21000005000000016150,https://torgi.gov.ru/new/public/notices/view/21000005000000016150,https://investmoscow.ru/tenders/tender/19371198,https://flatinfo.ru/h_info1.asp?hid=339447
#ГП16936427,Продажа,Квартира,77:10:0006008:7469,Зеленоградский,Крюково,"г. Москва, г. Зеленоград, к. 2032",79.0,2,5,10.0,0.0,55.1,9100000,165154.26,455000,91000,Открытый аукцион в электронной форме,2023-10-05,2023-11-10,2023-11-17,2023-11-21,2023-11-21,44,3,4,32,7,3,55.97261999999999,37.17412,Нет данных,Монолитный,Бетонные Монолитные,Нет данных,-1.0,2014.0,-1.0,2.0,Исправный,Зеленоград,0.95,14.0,7700000200000.0,Нет данных,0.0,0.0,Нет данных,Нет данных,https://www.roseltorg.ru/procedure/21000005000000015774,https://torgi.gov.ru/new/public/notices/view/21000005000000015774,https://investmoscow.ru/tenders/tender/19327826,https://flatinfo.ru/h_info1.asp?hid=282967
#ГП16936421,Продажа,Квартира,77:10:0006008:7496,Зеленоградский,Крюково,"г. Москва, г. Зеленоград, к. 2032",106.0,2,2,10.0,0.0,54.4,9001000,165459.56,450050,90010,Открытый аукцион в электронной форме,2023-10-05,2023-11-10,2023-11-17,2023-11-21,2023-11-21,44,3,4,32,7,3,55.97261999999999,37.17412,Нет данных,Монолитный,Бетонные Монолитные,Нет данных,-1.0,2014.0,-1.0,2.0,Исправный,Зеленоград,0.95,14.0,7700000200000.0,Нет данных,0.0,0.0,Нет данных,Нет данных,https://www.roseltorg.ru/procedure/21000005000000015772,https://torgi.gov.ru/new/public/notices/view/21000005000000015772,https://investmoscow.ru/tenders/tender/19327703,https://flatinfo.ru/h_info1.asp?hid=282967
#ГП16936621,Продажа,Квартира,77:10:0006008:7447,Зеленоградский,Крюково,"г. Москва, г. Зеленоград, к. 2032",57.0,3,8,10.0,0.0,70.8,10676000,150790.96,533800,106760,Открытый аукцион в электронной форме,2023-10-12,2023-11-13,2023-11-20,2023-11-23,2023-11-23,44,3,4,32,7,3,55.97261999999999,37.17412,Нет данных,Монолитный,Бетонные Монолитные,Нет данных,-1.0,2014.0,-1.0,2.0,Исправный,Зеленоград,0.95,14.0,7700000200000.0,Нет данных,0.0,0.0,Нет данных,Нет данных,https://www.roseltorg.ru/procedure/21000005000000015925,https://torgi.gov.ru/new/public/notices/view/21000005000000015925,https://investmoscow.ru/tenders/tender/19351242,https://flatinfo.ru/h_info1.asp?hid=282967
#ГП16938981,Продажа,Квартира,77:10:0006008:7452,Зеленоградский,Крюково,"г. Москва, г. Зеленоград, к. 2032",62.0,4,9,10.0,0.0,94.8,13175000,138976.79,658750,131750,Открытый аукцион в электронной форме,2023-10-16,2023-11-17,2023-11-24,2023-11-28,2023-11-28,44,3,4,32,7,3,55.97261999999999,37.17412,Нет данных,Монолитный,Бетонные Монолитные,Нет данных,-1.0,2014.0,-1.0,2.0,Исправный,Зеленоград,0.95,14.0,7700000200000.0,Нет данных,0.0,0.0,Нет данных,Нет данных,https://www.roseltorg.ru/procedure/21000005000000016045,https://torgi.gov.ru/new/public/notices/view/21000005000000016045,https://investmoscow.ru/tenders/tender/19359138,https://flatinfo.ru/h_info1.asp?hid=282967
#ГП16938993,Продажа,Квартира,77:10:0006008:7427,Зеленоградский,Крюково,"г. Москва, г. Зеленоград, к. 2032",37.0,3,3,10.0,0.0,70.5,10638000,150893.62,531900,106380,Открытый аукцион в электронной форме,2023-10-16,2023-11-17,2023-11-24,2023-11-28,2023-11-28,44,3,4,32,7,3,55.97261999999999,37.17412,Нет данных,Монолитный,Бетонные Монолитные,Нет данных,-1.0,2014.0,-1.0,2.0,Исправный,Зеленоград,0.95,14.0,7700000200000.0,Нет данных,0.0,0.0,Нет данных,Нет данных,https://www.roseltorg.ru/procedure/21000005000000016043,https://torgi.gov.ru/new/public/notices/view/21000005000000016043,https://investmoscow.ru/tenders/tender/19359412,https://flatinfo.ru/h_info1.asp?hid=282967
#ГП16938543,Продажа,Квартира,77:02:0004004:3098,Северо-Восточный,Медведково Северное,"г. Москва, проезд. Шокальского, д. 55, к. 2",172.0,2,16,16.0,0.0,38.5,6293000,163454.55,314650,62930,Открытый аукцион в электронной форме,2023-10-06,2023-11-07,2023-11-14,2023-11-17,2023-11-17,155,21,7,25,51,2,55.88316999999999,37.65945,Железобетонные,Блочный,Крупнопанельные,муниципальный,632.0,1985.0,258.0,4.0,Исправный,Медведково,0.5,7.0,7.70000000003159e+16,Нет данных,0.0,0.0,Нет данных,Нет данных,https://www.roseltorg.ru/procedure/21000005000000015825,https://torgi.gov.ru/new/public/notices/view/21000005000000015825,https://investmoscow.ru/tenders/tender/19339329,https://flatinfo.ru/h_info1.asp?hid=61199
#ГП16938549,Продажа,Квартира,77:02:0004004:2952,Северо-Восточный,Медведково Северное,"г. Москва, проезд. Шокальского, д. 55, к. 2",79.0,2,8,16.0,0.0,38.1,6805000,178608.92,340250,68050,Открытый аукцион в электронной форме,2023-10-06,2023-11-07,2023-11-14,2023-11-17,2023-11-17,155,21,7,25,51,2,55.88316999999999,37.65945,Железобетонные,Блочный,Крупнопанельные,муниципальный,632.0,1985.0,258.0,4.0,Исправный,Медведково,0.5,7.0,7.70000000003159e+16,Нет данных,0.0,0.0,Нет данных,Нет данных,https://www.roseltorg.ru/procedure/21000005000000015828,https://torgi.gov.ru/new/public/notices/view/21000005000000015828,https://investmoscow.ru/tenders/tender/19339937,https://flatinfo.ru/h_info1.asp?hid=61199
#ГП16938537,Продажа,Квартира,77:02:0004004:2890,Северо-Восточный,Медведково Северное,"г. Москва, проезд. Шокальского, д. 55, к. 2",2.0,2,2,16.0,0.0,38.5,6488000,168519.48,324400,64880,Открытый аукцион в электронной форме,2023-10-06,2023-11-07,2023-11-14,2023-11-17,2023-11-17,155,21,7,25,51,2,55.88316999999999,37.65945,Железобетонные,Блочный,Крупнопанельные,муниципальный,632.0,1985.0,258.0,4.0,Исправный,Медведково,0.5,7.0,7.70000000003159e+16,Нет данных,0.0,0.0,Нет данных,Нет данных,https://www.roseltorg.ru/procedure/21000005000000015827,https://torgi.gov.ru/new/public/notices/view/21000005000000015827,https://investmoscow.ru/tenders/tender/19338720,https://flatinfo.ru/h_info1.asp?hid=61199
#ГП16938546,Продажа,Квартира,77:02:0004004:2921,Северо-Восточный,Медведково Северное,"г. Москва, проезд. Шокальского, д. 55, к. 2",43.0,2,5,16.0,0.0,39.0,6882000,176461.54,344100,68820,Открытый аукцион в электронной форме,2023-10-06,2023-11-07,2023-11-14,2023-11-17,2023-11-17,155,21,7,25,51,2,55.88316999999999,37.65945,Железобетонные,Блочный,Крупнопанельные,муниципальный,632.0,1985.0,258.0,4.0,Исправный,Медведково,0.5,7.0,7.70000000003159e+16,Нет данных,0.0,0.0,Нет данных,Нет данных,https://www.roseltorg.ru/procedure/21000005000000015826,https://torgi.gov.ru/new/public/notices/view/21000005000000015826,https://investmoscow.ru/tenders/tender/19339632,https://flatinfo.ru/h_info1.asp?hid=61199
#ГП16938534,Продажа,Квартира,77:02:0004004:2971,Северо-Восточный,Медведково Северное,"г. Москва, проезд. Шокальского, д. 55, к. 2",93.0,3,9,16.0,0.0,38.1,6805000,178608.92,340250,68050,Открытый аукцион в электронной форме,2023-10-06,2023-11-07,2023-11-14,2023-11-17,2023-11-17,155,21,7,25,51,2,55.88316999999999,37.65945,Железобетонные,Блочный,Крупнопанельные,муниципальный,632.0,1985.0,258.0,4.0,Исправный,Медведково,0.5,7.0,7.70000000003159e+16,Нет данных,0.0,0.0,Нет данных,Нет данных,https://www.roseltorg.ru/procedure/21000005000000015833,https://torgi.gov.ru/new/public/notices/view/21000005000000015833,https://investmoscow.ru/tenders/tender/19338148,https://flatinfo.ru/h_info1.asp?hid=61199
#ГП16938636,Продажа,Квартира,77:02:0004004:3042,Северо-Восточный,Медведково Северное,"г. Москва, проезд. Шокальского, д. 55, к. 2",144.0,2,13,16.0,0.0,39.8,7074000,177738.69,353700,70740,Открытый аукцион в электронной форме,2023-10-12,2023-11-13,2023-11-20,2023-11-23,2023-11-23,155,21,7,25,51,2,55.88316999999999,37.65945,Железобетонные,Блочный,Крупнопанельные,муниципальный,632.0,1985.0,258.0,4.0,Исправный,Медведково,0.5,7.0,7.70000000003159e+16,Нет данных,0.0,0.0,Нет данных,Нет данных,https://www.roseltorg.ru/procedure/21000005000000015928,https://torgi.gov.ru/new/public/notices/view/21000005000000015928,https://investmoscow.ru/tenders/tender/19346589,https://flatinfo.ru/h_info1.asp?hid=61199
#ГП16938737,Продажа,Квартира,77:02:0004004:2923,Северо-Восточный,Медведково Северное,"г. Москва, проезд. Шокальского, д. 55, к. 2",45.0,2,5,16.0,0.0,38.0,6414000,168789.47,320700,64140,Открытый аукцион в электронной форме,2023-10-12,2023-11-13,2023-11-20,2023-11-23,2023-11-23,155,21,7,25,51,2,55.88316999999999,37.65945,Железобетонные,Блочный,Крупнопанельные,муниципальный,632.0,1985.0,258.0,4.0,Исправный,Медведково,0.5,7.0,7.70000000003159e+16,Нет данных,0.0,0.0,Нет данных,Нет данных,https://www.roseltorg.ru/procedure/21000005000000015926,https://torgi.gov.ru/new/public/notices/view/21000005000000015926,https://investmoscow.ru/tenders/tender/19350668,https://flatinfo.ru/h_info1.asp?hid=61199
#ГП16938722,Продажа,Квартира,77:02:0004004:3040,Северо-Восточный,Медведково Северное,"г. Москва, проезд. Шокальского, д. 55, к. 2",142.0,2,13,16.0,0.0,38.4,6786000,176718.75,339300,67860,Открытый аукцион в электронной форме,2023-10-12,2023-11-13,2023-11-20,2023-11-23,2023-11-23,155,21,7,25,51,2,55.88316999999999,37.65945,Железобетонные,Блочный,Крупнопанельные,муниципальный,632.0,1985.0,258.0,4.0,Исправный,Медведково,0.5,7.0,7.70000000003159e+16,Нет данных,0.0,0.0,Нет данных,Нет данных,https://www.roseltorg.ru/procedure/21000005000000015930,https://torgi.gov.ru/new/public/notices/view/21000005000000015930,https://investmoscow.ru/tenders/tender/19349965,https://flatinfo.ru/h_info1.asp?hid=61199
#ГП16938735,Продажа,Квартира,77:02:0004004:2993,Северо-Восточный,Медведково Северное,"г. Москва, проезд. Шокальского, д. 55, к. 2",97.0,2,10,16.0,0.0,39.0,6945000,178076.92,347250,69450,Открытый аукцион в электронной форме,2023-10-12,2023-11-13,2023-11-20,2023-11-23,2023-11-23,155,21,7,25,51,2,55.88316999999999,37.65945,Железобетонные,Блочный,Крупнопанельные,муниципальный,632.0,1985.0,258.0,4.0,Исправный,Медведково,0.5,7.0,7.70000000003159e+16,Нет данных,0.0,0.0,Нет данных,Нет данных,https://www.roseltorg.ru/procedure/21000005000000015931,https://torgi.gov.ru/new/public/notices/view/21000005000000015931,https://investmoscow.ru/tenders/tender/19350169,https://flatinfo.ru/h_info1.asp?hid=61199
#ГП16938748,Продажа,Квартира,77:02:0004004:3091,Северо-Восточный,Медведково Северное,"г. Москва, проезд. Шокальского, д. 55, к. 2",178.0,2,16,16.0,0.0,47.5,8100000,170526.32,405000,81000,Открытый аукцион в электронной форме,2023-10-12,2023-11-13,2023-11-20,2023-11-23,2023-11-23,155,21,7,25,51,2,55.88316999999999,37.65945,Железобетонные,Блочный,Крупнопанельные,муниципальный,632.0,1985.0,258.0,4.0,Исправный,Медведково,0.5,7.0,7.70000000003159e+16,Нет данных,0.0,0.0,Нет данных,Нет данных,https://www.roseltorg.ru/procedure/21000005000000015929,https://torgi.gov.ru/new/public/notices/view/21000005000000015929,https://investmoscow.ru/tenders/tender/19351121,https://flatinfo.ru/h_info1.asp?hid=61199
#ГП16938674,Продажа,Квартира,77:02:0004004:3024,Северо-Восточный,Медведково Северное,"г. Москва, проезд. Шокальского, д. 55, к. 2",131.0,2,12,16.0,0.0,38.8,6532000,168350.52,326600,65320,Открытый аукцион в электронной форме,2023-10-12,2023-11-13,2023-11-20,2023-11-23,2023-11-23,155,21,7,25,51,2,55.88316999999999,37.65945,Железобетонные,Блочный,Крупнопанельные,муниципальный,632.0,1985.0,258.0,4.0,Исправный,Медведково,0.5,7.0,7.70000000003159e+16,Нет данных,0.0,0.0,Нет данных,Нет данных,https://www.roseltorg.ru/procedure/21000005000000015927,https://torgi.gov.ru/new/public/notices/view/21000005000000015927,https://investmoscow.ru/tenders/tender/19347982,https://flatinfo.ru/h_info1.asp?hid=61199
#ГП16937983,Продажа,Квартира,77:06:0002012:4807,Юго-Западный,Академический,"г. Москва, ул. Дмитрия Ульянова, д. 27",187.0,1,12,19.0,0.0,36.1,11281250,312500.0,100000,112812,Открытый аукцион в электронной форме,2023-10-02,2023-11-07,2023-11-13,2023-11-15,2023-11-15,124,23,9,41,37,5,55.685719999999996,37.58135,Железобетонные,Панельный,Железобетонные,Нет данных,-1.0,2018.0,278.0,2.0,Исправный,Академическая,0.6,9.0,7.70000000002964e+16,Нет данных,0.0,0.0,Нет данных,Нет данных,https://178fz.roseltorg.ru/#com/procedure/view/procedure/481826,Нет данных,https://investmoscow.ru/tenders/tender/19316801,https://flatinfo.ru/h_info1.asp?hid=320872
#ГП16937976,Продажа,Квартира,77:06:0003009:9707,Юго-Западный,Черемушки,"г. Москва, ул. Профсоюзная, д. 32",59.0,3,13,22.0,0.0,69.7,23126460,331800.0,100000,231264,Открытый аукцион в электронной форме,2023-10-02,2023-11-07,2023-11-13,2023-11-15,2023-11-15,132,34,17,29,32,1,55.67738000000001,37.560959999999994,Железобетонные,Монолитный,Нет данных,Нет данных,-1.0,2020.0,270.0,3.0,Исправный,Профсоюзная,0.15,3.0,Нет данных,Нет данных,0.0,0.0,Нет данных,Нет данных,https://178fz.roseltorg.ru/#com/procedure/view/procedure/481828,Нет данных,https://investmoscow.ru/tenders/tender/19316285,https://flatinfo.ru/h_info1.asp?hid=354924
#ГП16937980,Продажа,Квартира,77:03:0005011:9743,Восточный,Измайлово Северное,"г. Москва, ул. Константина Федина, д. 13",1080.0,1,31,33.0,1.0,43.0,12121700,281900.0,100000,121217,Открытый аукцион в электронной форме,2023-10-02,2023-11-07,2023-11-13,2023-11-15,2023-11-15,311,63,6,30,53,1,55.80741999999999,37.804,Железобетонные,Монолитный,Нет данных,Нет данных,-1.0,2020.0,270.0,4.0,Исправный,Щелковская,0.4,6.0,Нет данных,Нет данных,0.0,1.0,Нет данных,Нет данных,https://178fz.roseltorg.ru/#com/procedure/view/procedure/481529,Нет данных,https://investmoscow.ru/tenders/tender/19316510,https://flatinfo.ru/h_info1.asp?hid=354868
#ГП16937982,Продажа,Квартира,77:09:0003024:4495,Северный,Тимирязевский,"г. Москва, ш. Дмитровское, д. 55",117.0,2,10,22.0,1.0,56.5,15475350,273900.0,100000,154753,Открытый аукцион в электронной форме,2023-10-02,2023-11-07,2023-11-13,2023-11-15,2023-11-15,74,16,13,13,15,2,55.84346,37.56593,Нет данных,Монолитный,Нет данных,Нет данных,-1.0,2021.0,270.0,2.0,Нет данных,Окружная,0.65,10.0,Нет данных,Нет данных,0.0,1.0,Нет данных,Нет данных,https://178fz.roseltorg.ru/#com/procedure/view/procedure/481827,Нет данных,https://investmoscow.ru/tenders/tender/19316756,https://flatinfo.ru/h_info1.asp?hid=353964
#ГП16937973,Продажа,Квартира,77:02:0010007:4599,Северо-Восточный,Лосиноостровский,"г. Москва, ул. Норильская, д. 9",72.0,3,3,20.0,0.0,71.7,15601920,217600.0,100000,156019,Открытый аукцион в электронной форме,2023-10-02,2023-11-07,2023-11-13,2023-11-15,2023-11-15,78,11,5,31,16,6,55.87755,37.694990000000004,Нет данных,Монолитный,Нет данных,Нет данных,-1.0,2021.0,270.0,3.0,Нет данных,Бабушкинская,2.15,33.0,Нет данных,Нет данных,0.0,0.0,Нет данных,Нет данных,https://178fz.roseltorg.ru/#com/procedure/view/procedure/481751,Нет данных,https://investmoscow.ru/tenders/tender/19315053,https://flatinfo.ru/h_info1.asp?hid=353956
#ГП16937972,Продажа,Квартира,77:02:0010007:4550,Северо-Восточный,Лосиноостровский,"г. Москва, ул. Норильская, д. 9",28.0,1,6,20.0,0.0,42.8,10246320,239400.0,100000,102463,Открытый аукцион в электронной форме,2023-10-02,2023-11-07,2023-11-13,2023-11-15,2023-11-15,78,11,5,31,16,6,55.87755,37.694990000000004,Нет данных,Монолитный,Нет данных,Нет данных,-1.0,2021.0,270.0,3.0,Нет данных,Бабушкинская,2.15,33.0,Нет данных,Нет данных,0.0,0.0,Нет данных,Нет данных,https://178fz.roseltorg.ru/#com/procedure/view/procedure/481746,Нет данных,https://investmoscow.ru/tenders/tender/19315020,https://flatinfo.ru/h_info1.asp?hid=353956
#ГП16937975,Продажа,Квартира,77:02:0010007:4445,Северо-Восточный,Лосиноостровский,"г. Москва, ул. Норильская, д. 9",108.0,3,19,20.0,0.0,72.2,15869560,219800.0,100000,158695,Открытый аукцион в электронной форме,2023-10-02,2023-11-07,2023-11-13,2023-11-15,2023-11-15,78,11,5,31,16,6,55.87755,37.694990000000004,Нет данных,Монолитный,Нет данных,Нет данных,-1.0,2021.0,270.0,3.0,Нет данных,Бабушкинская,2.15,33.0,Нет данных,Нет данных,0.0,0.0,Нет данных,Нет данных,https://178fz.roseltorg.ru/#com/procedure/view/procedure/481783,Нет данных,https://investmoscow.ru/tenders/tender/19316232,https://flatinfo.ru/h_info1.asp?hid=353956
#ГП16937974,Продажа,Квартира,77:02:0010007:4616,Северо-Восточный,Лосиноостровский,"г. Москва, ул. Норильская, д. 9",88.0,1,16,20.0,0.0,42.7,10538360,246800.0,100000,105383,Открытый аукцион в электронной форме,2023-10-02,2023-11-07,2023-11-13,2023-11-15,2023-11-15,78,11,5,31,16,6,55.87755,37.694990000000004,Нет данных,Монолитный,Нет данных,Нет данных,-1.0,2021.0,270.0,3.0,Нет данных,Бабушкинская,2.15,33.0,Нет данных,Нет данных,0.0,0.0,Нет данных,Нет данных,https://178fz.roseltorg.ru/#com/procedure/view/procedure/481761,Нет данных,https://investmoscow.ru/tenders/tender/19316207,https://flatinfo.ru/h_info1.asp?hid=353956
#ГП16937979,Продажа,Квартира,77:08:0009004:9119,Северо-Западный,Щукино,"г. Москва, ул. Новощукинская, д. 8",301.0,1,18,18.0,0.0,41.1,12338220,300200.0,100000,123382,Открытый аукцион в электронной форме,2023-10-02,2023-11-07,2023-11-13,2023-11-15,2023-11-15,103,28,11,22,38,3,55.80758,37.45671,Железобетонные,Монолитный,Нет данных,Нет данных,-1.0,2021.0,270.0,2.0,Исправный,Щукинская,0.5,8.0,7.70000000002072e+16,Нет данных,0.0,0.0,Нет данных,Нет данных,https://178fz.roseltorg.ru/#com/procedure/view/procedure/481440,Нет данных,https://investmoscow.ru/tenders/tender/19316417,https://flatinfo.ru/h_info1.asp?hid=338421
#ГП16937978,Продажа,Квартира,77:08:0009004:9321,Северо-Западный,Щукино,"г. Москва, ул. Новощукинская, д. 8",68.0,3,18,18.0,0.0,70.7,19824280,280400.0,100000,198242,Открытый аукцион в электронной форме,2023-10-02,2023-11-07,2023-11-13,2023-11-15,2023-11-15,103,28,11,22,38,3,55.80758,37.45671,Железобетонные,Монолитный,Нет данных,Нет данных,-1.0,2021.0,270.0,2.0,Исправный,Щукинская,0.5,8.0,7.70000000002072e+16,Нет данных,0.0,0.0,Нет данных,Нет данных,https://178fz.roseltorg.ru/#com/procedure/view/procedure/481355,Нет данных,https://investmoscow.ru/tenders/tender/19316366,https://flatinfo.ru/h_info1.asp?hid=338421
#ГП16938235,Продажа,Квартира,77:02:0018007:4591,Северо-Восточный,Ростокино,"г. Москва, ул. Сельскохозяйственная, д. 14, к. 3",96.0,1,10,12.0,0.0,40.1,11893660,296600.0,100000,118936,Открытый аукцион в электронной форме,2023-10-04,2023-11-08,2023-11-14,2023-11-16,2023-11-16,9,9,10,21,9,1,55.8358,37.64371,Нет данных,Монолитный,Нет данных,Нет данных,-1.0,2020.0,270.0,1.0,Исправный,Ботанический Сад,1.15,17.0,Нет данных,Нет данных,0.0,0.0,Нет данных,Нет данных,https://178fz.roseltorg.ru/#com/procedure/view/procedure/482429,Нет данных,https://investmoscow.ru/tenders/tender/19323614,https://flatinfo.ru/h_info1.asp?hid=354968
#ГП16938233,Продажа,Квартира,77:02:0018007:4559,Северо-Восточный,Ростокино,"г. Москва, ул. Сельскохозяйственная, д. 14, к. 3",67.0,1,5,12.0,0.0,40.2,11806740,293700.0,100000,118067,Открытый аукцион в электронной форме,2023-10-04,2023-11-08,2023-11-14,2023-11-16,2023-11-16,9,9,10,21,9,1,55.8358,37.64371,Нет данных,Монолитный,Нет данных,Нет данных,-1.0,2020.0,270.0,1.0,Исправный,Ботанический Сад,1.15,17.0,Нет данных,Нет данных,0.0,0.0,Нет данных,Нет данных,https://178fz.roseltorg.ru/#com/procedure/view/procedure/482425,Нет данных,https://investmoscow.ru/tenders/tender/19323608,https://flatinfo.ru/h_info1.asp?hid=354968
#ГП16938236,Продажа,Квартира,77:02:0018007:4430,Северо-Восточный,Ростокино,"г. Москва, ул. Сельскохозяйственная, д. 14, к. 3",109.0,1,12,12.0,0.0,39.5,11948750,302500.0,100000,119487,Открытый аукцион в электронной форме,2023-10-04,2023-11-08,2023-11-14,2023-11-16,2023-11-16,9,9,10,21,9,1,55.8358,37.64371,Нет данных,Монолитный,Нет данных,Нет данных,-1.0,2020.0,270.0,1.0,Исправный,Ботанический Сад,1.15,17.0,Нет данных,Нет данных,0.0,0.0,Нет данных,Нет данных,https://178fz.roseltorg.ru/#com/procedure/view/procedure/482428,Нет данных,https://investmoscow.ru/tenders/tender/19323616,https://flatinfo.ru/h_info1.asp?hid=354968
#ГП16938234,Продажа,Квартира,77:02:0018007:4566,Северо-Восточный,Ростокино,"г. Москва, ул. Сельскохозяйственная, д. 14, к. 3",73.0,1,6,12.0,0.0,40.1,11893660,296600.0,100000,118936,Открытый аукцион в электронной форме,2023-10-04,2023-11-08,2023-11-14,2023-11-16,2023-11-16,9,9,10,21,9,1,55.8358,37.64371,Нет данных,Монолитный,Нет данных,Нет данных,-1.0,2020.0,270.0,1.0,Исправный,Ботанический Сад,1.15,17.0,Нет данных,Нет данных,0.0,0.0,Нет данных,Нет данных,https://178fz.roseltorg.ru/#com/procedure/view/procedure/482426,Нет данных,https://investmoscow.ru/tenders/tender/19323612,https://flatinfo.ru/h_info1.asp?hid=354968
#ГП16938241,Продажа,Квартира,77:05:0002001:11722,Южный,Даниловский,"г. Москва, пер. Пересветов, д. 9",156.0,1,10,12.0,0.0,43.7,14827410,339300.0,100000,148274,Открытый аукцион в электронной форме,2023-10-04,2023-11-08,2023-11-14,2023-11-16,2023-11-16,216,30,12,31,28,3,55.713409999999996,37.66299,Нет данных,Монолитный,Нет данных,Нет данных,-1.0,2022.0,270.0,-1.0,Нет данных,Автозаводская,0.75,12.0,Нет данных,Нет данных,0.0,0.0,Нет данных,Нет данных,https://178fz.roseltorg.ru/#com/procedure/view/procedure/482409,Нет данных,https://investmoscow.ru/tenders/tender/19323668,https://flatinfo.ru/h_info1.asp?hid=354938
#ГП16938237,Продажа,Квартира,77:05:0002001:11700,Южный,Даниловский,"г. Москва, пер. Пересветов, д. 9",136.0,1,5,12.0,0.0,43.8,14712420,335900.0,100000,147124,Открытый аукцион в электронной форме,2023-10-04,2023-11-08,2023-11-14,2023-11-16,2023-11-16,216,30,12,31,28,3,55.713409999999996,37.66299,Нет данных,Монолитный,Нет данных,Нет данных,-1.0,2022.0,270.0,-1.0,Нет данных,Автозаводская,0.75,12.0,Нет данных,Нет данных,0.0,0.0,Нет данных,Нет данных,https://178fz.roseltorg.ru/#com/procedure/view/procedure/482091,Нет данных,https://investmoscow.ru/tenders/tender/19323618,https://flatinfo.ru/h_info1.asp?hid=354938
#ГП16938240,Продажа,Квартира,77:05:0002001:11713,Южный,Даниловский,"г. Москва, пер. Пересветов, д. 9",148.0,1,8,12.0,0.0,43.8,14861340,339300.0,100000,148613,Открытый аукцион в электронной форме,2023-10-04,2023-11-08,2023-11-14,2023-11-16,2023-11-16,216,30,12,31,28,3,55.713409999999996,37.66299,Нет данных,Монолитный,Нет данных,Нет данных,-1.0,2022.0,270.0,-1.0,Нет данных,Автозаводская,0.75,12.0,Нет данных,Нет данных,0.0,0.0,Нет данных,Нет данных,https://178fz.roseltorg.ru/#com/procedure/view/procedure/482094,Нет данных,https://investmoscow.ru/tenders/tender/19323666,https://flatinfo.ru/h_info1.asp?hid=354938
#ГП16938239,Продажа,Квартира,77:05:0002001:11709,Южный,Даниловский,"г. Москва, пер. Пересветов, д. 9",144.0,1,7,12.0,0.0,43.5,14759550,339300.0,100000,147595,Открытый аукцион в электронной форме,2023-10-04,2023-11-08,2023-11-14,2023-11-16,2023-11-16,216,30,12,31,28,3,55.713409999999996,37.66299,Нет данных,Монолитный,Нет данных,Нет данных,-1.0,2022.0,270.0,-1.0,Нет данных,Автозаводская,0.75,12.0,Нет данных,Нет данных,0.0,0.0,Нет данных,Нет данных,https://178fz.roseltorg.ru/#com/procedure/view/procedure/482093,Нет данных,https://investmoscow.ru/tenders/tender/19323658,https://flatinfo.ru/h_info1.asp?hid=354938
#ГП16938238,Продажа,Квартира,77:05:0002001:11705,Южный,Даниловский,"г. Москва, пер. Пересветов, д. 9",140.0,1,6,12.0,0.0,43.7,14827410,339300.0,100000,148274,Открытый аукцион в электронной форме,2023-10-04,2023-11-08,2023-11-14,2023-11-16,2023-11-16,216,30,12,31,28,3,55.713409999999996,37.66299,Нет данных,Монолитный,Нет данных,Нет данных,-1.0,2022.0,270.0,-1.0,Нет данных,Автозаводская,0.75,12.0,Нет данных,Нет данных,0.0,0.0,Нет данных,Нет данных,https://178fz.roseltorg.ru/#com/procedure/view/procedure/482092,Нет данных,https://investmoscow.ru/tenders/tender/19323630,https://flatinfo.ru/h_info1.asp?hid=354938
#ГП16938243,Продажа,Квартира,77:06:0008005:6046,Юго-Западный,Коньково,"г. Москва, ул. Введенского, д. 13В",6.0,1,2,19.0,0.0,40.1,11183890,278900.0,100000,111838,Открытый аукцион в электронной форме,2023-10-04,2023-11-08,2023-11-14,2023-11-16,2023-11-16,64,10,5,11,10,5,55.64182,37.54267,Нет данных,Монолитный,Нет данных,Нет данных,-1.0,2021.0,272.0,-1.0,Нет данных,Беляево,1.05,16.0,Нет данных,Нет данных,0.0,0.0,Нет данных,Нет данных,https://178fz.roseltorg.ru/#com/procedure/view/procedure/482416,Нет данных,https://investmoscow.ru/tenders/tender/19323691,https://flatinfo.ru/h_info1.asp?hid=354819
#ГП16938252,Продажа,Квартира,77:06:0008005:5869,Юго-Западный,Коньково,"г. Москва, ул. Введенского, д. 13В",123.0,1,15,19.0,0.0,39.2,11273920,287600.0,100000,112739,Открытый аукцион в электронной форме,2023-10-04,2023-11-08,2023-11-14,2023-11-16,2023-11-16,64,10,5,11,10,5,55.64182,37.54267,Нет данных,Монолитный,Нет данных,Нет данных,-1.0,2021.0,272.0,-1.0,Нет данных,Беляево,1.05,16.0,Нет данных,Нет данных,0.0,0.0,Нет данных,Нет данных,https://178fz.roseltorg.ru/#com/procedure/view/procedure/482307,Нет данных,https://investmoscow.ru/tenders/tender/19323752,https://flatinfo.ru/h_info1.asp?hid=354819
#ГП16938245,Продажа,Квартира,77:06:0008005:5897,Юго-Западный,Коньково,"г. Москва, ул. Введенского, д. 13В",14.0,1,3,19.0,0.0,39.3,10960770,278900.0,100000,109607,Открытый аукцион в электронной форме,2023-10-04,2023-11-08,2023-11-14,2023-11-16,2023-11-16,64,10,5,11,10,5,55.64182,37.54267,Нет данных,Монолитный,Нет данных,Нет данных,-1.0,2021.0,272.0,-1.0,Нет данных,Беляево,1.05,16.0,Нет данных,Нет данных,0.0,0.0,Нет данных,Нет данных,https://178fz.roseltorg.ru/#com/procedure/view/procedure/482422,Нет данных,https://investmoscow.ru/tenders/tender/19323727,https://flatinfo.ru/h_info1.asp?hid=354819
#ГП16938244,Продажа,Квартира,77:06:0008005:5886,Юго-Западный,Коньково,"г. Москва, ул. Введенского, д. 13В",13.0,1,3,19.0,0.0,39.4,10988660,278900.0,100000,109886,Открытый аукцион в электронной форме,2023-10-04,2023-11-08,2023-11-14,2023-11-16,2023-11-16,64,10,5,11,10,5,55.64182,37.54267,Нет данных,Монолитный,Нет данных,Нет данных,-1.0,2021.0,272.0,-1.0,Нет данных,Беляево,1.05,16.0,Нет данных,Нет данных,0.0,0.0,Нет данных,Нет данных,https://178fz.roseltorg.ru/#com/procedure/view/procedure/482419,Нет данных,https://investmoscow.ru/tenders/tender/19323715,https://flatinfo.ru/h_info1.asp?hid=354819
#ГП16938242,Продажа,Квартира,77:06:0008005:5952,Юго-Западный,Коньково,"г. Москва, ул. Введенского, д. 13В",1.0,1,2,19.0,0.0,39.3,10960770,278900.0,100000,109607,Открытый аукцион в электронной форме,2023-10-04,2023-11-08,2023-11-14,2023-11-16,2023-11-16,64,10,5,11,10,5,55.64182,37.54267,Нет данных,Монолитный,Нет данных,Нет данных,-1.0,2021.0,272.0,-1.0,Нет данных,Беляево,1.05,16.0,Нет данных,Нет данных,0.0,0.0,Нет данных,Нет данных,https://178fz.roseltorg.ru/#com/procedure/view/procedure/482414,Нет данных,https://investmoscow.ru/tenders/tender/19323670,https://flatinfo.ru/h_info1.asp?hid=354819
#ГП16938251,Продажа,Квартира,77:06:0008005:5857,Юго-Западный,Коньково,"г. Москва, ул. Введенского, д. 13В",112.0,1,14,19.0,0.0,39.3,11302680,287600.0,100000,113026,Открытый аукцион в электронной форме,2023-10-04,2023-11-08,2023-11-14,2023-11-16,2023-11-16,64,10,5,11,10,5,55.64182,37.54267,Нет данных,Монолитный,Нет данных,Нет данных,-1.0,2021.0,272.0,-1.0,Нет данных,Беляево,1.05,16.0,Нет данных,Нет данных,0.0,0.0,Нет данных,Нет данных,https://178fz.roseltorg.ru/#com/procedure/view/procedure/482300,Нет данных,https://investmoscow.ru/tenders/tender/19323750,https://flatinfo.ru/h_info1.asp?hid=354819
#ГП16938249,Продажа,Квартира,77:06:0008005:6054,Юго-Западный,Коньково,"г. Москва, ул. Введенского, д. 13В",76.0,1,10,19.0,0.0,39.5,11131100,281800.0,100000,111311,Открытый аукцион в электронной форме,2023-10-04,2023-11-08,2023-11-14,2023-11-16,2023-11-16,64,10,5,11,10,5,55.64182,37.54267,Нет данных,Монолитный,Нет данных,Нет данных,-1.0,2021.0,272.0,-1.0,Нет данных,Беляево,1.05,16.0,Нет данных,Нет данных,0.0,0.0,Нет данных,Нет данных,https://178fz.roseltorg.ru/#com/procedure/view/procedure/482294,Нет данных,https://investmoscow.ru/tenders/tender/19323746,https://flatinfo.ru/h_info1.asp?hid=354819
#ГП16938246,Продажа,Квартира,77:06:0008005:5996,Юго-Западный,Коньково,"г. Москва, ул. Введенского, д. 13В",23.0,1,4,19.0,0.0,39.3,10960770,278900.0,100000,109607,Открытый аукцион в электронной форме,2023-10-04,2023-11-08,2023-11-14,2023-11-16,2023-11-16,64,10,5,11,10,5,55.64182,37.54267,Нет данных,Монолитный,Нет данных,Нет данных,-1.0,2021.0,272.0,-1.0,Нет данных,Беляево,1.05,16.0,Нет данных,Нет данных,0.0,0.0,Нет данных,Нет данных,https://178fz.roseltorg.ru/#com/procedure/view/procedure/482420,Нет данных,https://investmoscow.ru/tenders/tender/19323732,https://flatinfo.ru/h_info1.asp?hid=354819
#ГП16938250,Продажа,Квартира,77:06:0008005:5847,Юго-Западный,Коньково,"г. Москва, ул. Введенского, д. 13В",103.0,1,13,19.0,0.0,39.3,11302680,287600.0,100000,113026,Открытый аукцион в электронной форме,2023-10-04,2023-11-08,2023-11-14,2023-11-16,2023-11-16,64,10,5,11,10,5,55.64182,37.54267,Нет данных,Монолитный,Нет данных,Нет данных,-1.0,2021.0,272.0,-1.0,Нет данных,Беляево,1.05,16.0,Нет данных,Нет данных,0.0,0.0,Нет данных,Нет данных,https://178fz.roseltorg.ru/#com/procedure/view/procedure/482296,Нет данных,https://investmoscow.ru/tenders/tender/19323748,https://flatinfo.ru/h_info1.asp?hid=354819
#ГП16938248,Продажа,Квартира,77:06:0008005:5998,Юго-Западный,Коньково,"г. Москва, ул. Введенского, д. 13В",25.0,1,4,19.0,0.0,39.5,11016550,278900.0,100000,110165,Открытый аукцион в электронной форме,2023-10-04,2023-11-08,2023-11-14,2023-11-16,2023-11-16,64,10,5,11,10,5,55.64182,37.54267,Нет данных,Монолитный,Нет данных,Нет данных,-1.0,2021.0,272.0,-1.0,Нет данных,Беляево,1.05,16.0,Нет данных,Нет данных,0.0,0.0,Нет данных,Нет данных,https://178fz.roseltorg.ru/#com/procedure/view/procedure/482404,Нет данных,https://investmoscow.ru/tenders/tender/19323743,https://flatinfo.ru/h_info1.asp?hid=354819
#ГП16938247,Продажа,Квартира,77:06:0008005:5997,Юго-Западный,Коньково,"г. Москва, ул. Введенского, д. 13В",24.0,1,4,19.0,0.0,39.4,10988660,278900.0,100000,109886,Открытый аукцион в электронной форме,2023-10-04,2023-11-08,2023-11-14,2023-11-16,2023-11-16,64,10,5,11,10,5,55.64182,37.54267,Нет данных,Монолитный,Нет данных,Нет данных,-1.0,2021.0,272.0,-1.0,Нет данных,Беляево,1.05,16.0,Нет данных,Нет данных,0.0,0.0,Нет данных,Нет данных,https://178fz.roseltorg.ru/#com/procedure/view/procedure/482418,Нет данных,https://investmoscow.ru/tenders/tender/19323737,https://flatinfo.ru/h_info1.asp?hid=354819
#ГП16938320,Продажа,Квартира,77:06:0008005:5878,Юго-Западный,Коньково,"г. Москва, ул. Введенского, д. 13В",131.0,1,16,19.0,0.0,39.6,11503800,290500.0,100000,115038,Открытый аукцион в электронной форме,2023-10-05,2023-11-09,2023-11-15,2023-11-17,2023-11-17,64,10,5,11,10,5,55.64182,37.54267,Нет данных,Монолитный,Нет данных,Нет данных,-1.0,2021.0,272.0,-1.0,Нет данных,Беляево,1.05,16.0,Нет данных,Нет данных,0.0,0.0,Нет данных,Нет данных,https://178fz.roseltorg.ru/#com/procedure/view/procedure/482556,Нет данных,https://investmoscow.ru/tenders/tender/19327183,https://flatinfo.ru/h_info1.asp?hid=354819
#ГП16938323,Продажа,Квартира,77:06:0008005:5880,Юго-Западный,Коньково,"г. Москва, ул. Введенского, д. 13В",133.0,1,16,19.0,0.0,39.8,11561900,290500.0,100000,115619,Открытый аукцион в электронной форме,2023-10-05,2023-11-09,2023-11-15,2023-11-17,2023-11-17,64,10,5,11,10,5,55.64182,37.54267,Нет данных,Монолитный,Нет данных,Нет данных,-1.0,2021.0,272.0,-1.0,Нет данных,Беляево,1.05,16.0,Нет данных,Нет данных,0.0,0.0,Нет данных,Нет данных,https://178fz.roseltorg.ru/#com/procedure/view/procedure/482561,Нет данных,https://investmoscow.ru/tenders/tender/19327305,https://flatinfo.ru/h_info1.asp?hid=354819
#ГП16938324,Продажа,Квартира,77:06:0008005:5887,Юго-Западный,Коньково,"г. Москва, ул. Введенского, д. 13В",139.0,1,17,19.0,0.0,39.6,11503800,290500.0,100000,115038,Открытый аукцион в электронной форме,2023-10-05,2023-11-09,2023-11-15,2023-11-17,2023-11-17,64,10,5,11,10,5,55.64182,37.54267,Нет данных,Монолитный,Нет данных,Нет данных,-1.0,2021.0,272.0,-1.0,Нет данных,Беляево,1.05,16.0,Нет данных,Нет данных,0.0,0.0,Нет данных,Нет данных,https://178fz.roseltorg.ru/#com/procedure/view/procedure/482560,Нет данных,https://investmoscow.ru/tenders/tender/19327455,https://flatinfo.ru/h_info1.asp?hid=354819
#ГП16938338,Продажа,Квартира,77:10:0002005:8300,Зеленоградский,Старое Крюково,"г. Москва, г. Зеленоград, аллея. Солнечная, к. 936",114.0,3,2,14.0,0.0,71.1,14938110,210100.0,100000,149381,Открытый аукцион в электронной форме,2023-10-05,2023-11-09,2023-11-15,2023-11-17,2023-11-17,65,6,6,26,16,2,55.980059999999995,37.18781,Нет данных,Монолитный,Нет данных,Нет данных,-1.0,2022.0,270.0,-1.0,Нет данных,Зеленоград,0.95,15.0,Нет данных,Нет данных,0.0,0.0,Нет данных,Нет данных,https://178fz.roseltorg.ru/#com/procedure/view/procedure/483268,Нет данных,https://investmoscow.ru/tenders/tender/19328482,https://flatinfo.ru/h_info1.asp?hid=354969
#ГП16938337,Продажа,Квартира,77:10:0002005:8297,Зеленоградский,Старое Крюково,"г. Москва, г. Зеленоград, аллея. Солнечная, к. 936",111.0,3,2,14.0,0.0,71.3,14980130,210100.0,100000,149801,Открытый аукцион в электронной форме,2023-10-05,2023-11-09,2023-11-15,2023-11-17,2023-11-17,65,6,6,26,16,2,55.980059999999995,37.18781,Нет данных,Монолитный,Нет данных,Нет данных,-1.0,2022.0,270.0,-1.0,Нет данных,Зеленоград,0.95,15.0,Нет данных,Нет данных,0.0,0.0,Нет данных,Нет данных,https://178fz.roseltorg.ru/#com/procedure/view/procedure/483082,Нет данных,https://investmoscow.ru/tenders/tender/19328474,https://flatinfo.ru/h_info1.asp?hid=354969
#ГП16938333,Продажа,Квартира,77:10:0002005:8597,Зеленоградский,Старое Крюково,"г. Москва, г. Зеленоград, аллея. Солнечная, к. 936",43.0,4,12,14.0,0.0,89.5,18929250,211500.0,100000,189292,Открытый аукцион в электронной форме,2023-10-05,2023-11-09,2023-11-15,2023-11-17,2023-11-17,65,6,6,26,16,2,55.980059999999995,37.18781,Нет данных,Монолитный,Нет данных,Нет данных,-1.0,2022.0,270.0,-1.0,Нет данных,Зеленоград,0.95,15.0,Нет данных,Нет данных,0.0,0.0,Нет данных,Нет данных,https://178fz.roseltorg.ru/#com/procedure/view/procedure/482858,Нет данных,https://investmoscow.ru/tenders/tender/19328404,https://flatinfo.ru/h_info1.asp?hid=354969
#ГП16938332,Продажа,Квартира,77:10:0002005:8596,Зеленоградский,Старое Крюково,"г. Москва, г. Зеленоград, аллея. Солнечная, к. 936",42.0,4,11,14.0,0.0,88.8,18781200,211500.0,100000,187812,Открытый аукцион в электронной форме,2023-10-05,2023-11-09,2023-11-15,2023-11-17,2023-11-17,65,6,6,26,16,2,55.980059999999995,37.18781,Нет данных,Монолитный,Нет данных,Нет данных,-1.0,2022.0,270.0,-1.0,Нет данных,Зеленоград,0.95,15.0,Нет данных,Нет данных,0.0,0.0,Нет данных,Нет данных,https://178fz.roseltorg.ru/#com/procedure/view/procedure/482856,Нет данных,https://investmoscow.ru/tenders/tender/19328371,https://flatinfo.ru/h_info1.asp?hid=354969
#ГП16938330,Продажа,Квартира,77:10:0002005:8582,Зеленоградский,Старое Крюково,"г. Москва, г. Зеленоград, аллея. Солнечная, к. 936",36.0,4,9,14.0,0.0,88.7,18573780,209400.0,100000,185737,Открытый аукцион в электронной форме,2023-10-05,2023-11-09,2023-11-15,2023-11-17,2023-11-17,65,6,6,26,16,2,55.980059999999995,37.18781,Нет данных,Монолитный,Нет данных,Нет данных,-1.0,2022.0,270.0,-1.0,Нет данных,Зеленоград,0.95,15.0,Нет данных,Нет данных,0.0,0.0,Нет данных,Нет данных,https://178fz.roseltorg.ru/#com/procedure/view/procedure/482850,Нет данных,https://investmoscow.ru/tenders/tender/19328334,https://flatinfo.ru/h_info1.asp?hid=354969
#ГП16938328,Продажа,Квартира,77:10:0002005:8614,Зеленоградский,Старое Крюково,"г. Москва, г. Зеленоград, аллея. Солнечная, к. 936",5.0,3,2,14.0,0.0,73.2,15379320,210100.0,100000,153793,Открытый аукцион в электронной форме,2023-10-05,2023-11-09,2023-11-15,2023-11-17,2023-11-17,65,6,6,26,16,2,55.980059999999995,37.18781,Нет данных,Монолитный,Нет данных,Нет данных,-1.0,2022.0,270.0,-1.0,Нет данных,Зеленоград,0.95,15.0,Нет данных,Нет данных,0.0,0.0,Нет данных,Нет данных,https://178fz.roseltorg.ru/#com/procedure/view/procedure/482218,Нет данных,https://investmoscow.ru/tenders/tender/19328129,https://flatinfo.ru/h_info1.asp?hid=354969
#ГП16938326,Продажа,Квартира,77:10:0002005:8504,Зеленоградский,Старое Крюково,"г. Москва, г. Зеленоград, аллея. Солнечная, к. 936",2.0,1,2,14.0,0.0,42.4,9412800,222000.0,100000,94128,Открытый аукцион в электронной форме,2023-10-05,2023-11-09,2023-11-15,2023-11-17,2023-11-17,65,6,6,26,16,2,55.980059999999995,37.18781,Нет данных,Монолитный,Нет данных,Нет данных,-1.0,2022.0,270.0,-1.0,Нет данных,Зеленоград,0.95,15.0,Нет данных,Нет данных,0.0,0.0,Нет данных,Нет данных,https://178fz.roseltorg.ru/#com/procedure/view/procedure/482193,Нет данных,https://investmoscow.ru/tenders/tender/19327782,https://flatinfo.ru/h_info1.asp?hid=354969
#ГП16938335,Продажа,Квартира,77:10:0002005:8599,Зеленоградский,Старое Крюково,"г. Москва, г. Зеленоград, аллея. Солнечная, к. 936",45.0,4,12,14.0,0.0,88.6,18738900,211500.0,100000,187389,Открытый аукцион в электронной форме,2023-10-05,2023-11-09,2023-11-15,2023-11-17,2023-11-17,65,6,6,26,16,2,55.980059999999995,37.18781,Нет данных,Монолитный,Нет данных,Нет данных,-1.0,2022.0,270.0,-1.0,Нет данных,Зеленоград,0.95,15.0,Нет данных,Нет данных,0.0,0.0,Нет данных,Нет данных,https://178fz.roseltorg.ru/#com/procedure/view/procedure/483033,Нет данных,https://investmoscow.ru/tenders/tender/19328451,https://flatinfo.ru/h_info1.asp?hid=354969
#ГП16938331,Продажа,Квартира,77:10:0002005:8590,Зеленоградский,Старое Крюково,"г. Москва, г. Зеленоград, аллея. Солнечная, к. 936",37.0,4,10,14.0,0.0,89.2,18678480,209400.0,100000,186784,Открытый аукцион в электронной форме,2023-10-05,2023-11-09,2023-11-15,2023-11-17,2023-11-17,65,6,6,26,16,2,55.980059999999995,37.18781,Нет данных,Монолитный,Нет данных,Нет данных,-1.0,2022.0,270.0,-1.0,Нет данных,Зеленоград,0.95,15.0,Нет данных,Нет данных,0.0,0.0,Нет данных,Нет данных,https://178fz.roseltorg.ru/#com/procedure/view/procedure/482854,Нет данных,https://investmoscow.ru/tenders/tender/19328357,https://flatinfo.ru/h_info1.asp?hid=354969
#ГП16938329,Продажа,Квартира,77:10:0002005:8560,Зеленоградский,Старое Крюково,"г. Москва, г. Зеленоград, аллея. Солнечная, к. 936",34.0,4,9,14.0,0.0,89.5,18741300,209400.0,100000,187413,Открытый аукцион в электронной форме,2023-10-05,2023-11-09,2023-11-15,2023-11-17,2023-11-17,65,6,6,26,16,2,55.980059999999995,37.18781,Нет данных,Монолитный,Нет данных,Нет данных,-1.0,2022.0,270.0,-1.0,Нет данных,Зеленоград,0.95,15.0,Нет данных,Нет данных,0.0,0.0,Нет данных,Нет данных,https://178fz.roseltorg.ru/#com/procedure/view/procedure/482232,Нет данных,https://investmoscow.ru/tenders/tender/19328299,https://flatinfo.ru/h_info1.asp?hid=354969
#ГП16938327,Продажа,Квартира,77:10:0002005:8592,Зеленоградский,Старое Крюково,"г. Москва, г. Зеленоград, аллея. Солнечная, к. 936",3.0,1,2,14.0,0.0,42.8,9501600,222000.0,100000,95016,Открытый аукцион в электронной форме,2023-10-05,2023-11-09,2023-11-15,2023-11-17,2023-11-17,65,6,6,26,16,2,55.980059999999995,37.18781,Нет данных,Монолитный,Нет данных,Нет данных,-1.0,2022.0,270.0,-1.0,Нет данных,Зеленоград,0.95,15.0,Нет данных,Нет данных,0.0,0.0,Нет данных,Нет данных,https://178fz.roseltorg.ru/#com/procedure/view/procedure/482214,Нет данных,https://investmoscow.ru/tenders/tender/19327915,https://flatinfo.ru/h_info1.asp?hid=354969
#ГП16938342,Продажа,Квартира,77:10:0002005:8326,Зеленоградский,Старое Крюково,"г. Москва, г. Зеленоград, аллея. Солнечная, к. 936",138.0,3,8,14.0,0.0,81.6,17315520,212200.0,100000,173155,Открытый аукцион в электронной форме,2023-10-05,2023-11-09,2023-11-15,2023-11-17,2023-11-17,65,6,6,26,16,2,55.980059999999995,37.18781,Нет данных,Монолитный,Нет данных,Нет данных,-1.0,2022.0,270.0,-1.0,Нет данных,Зеленоград,0.95,15.0,Нет данных,Нет данных,0.0,0.0,Нет данных,Нет данных,https://178fz.roseltorg.ru/#com/procedure/view/procedure/483076,Нет данных,https://investmoscow.ru/tenders/tender/19328507,https://flatinfo.ru/h_info1.asp?hid=354969
#ГП16938341,Продажа,Квартира,77:10:0002005:8323,Зеленоградский,Старое Крюково,"г. Москва, г. Зеленоград, аллея. Солнечная, к. 936",135.0,3,8,14.0,0.0,81.7,17336740,212200.0,100000,173367,Открытый аукцион в электронной форме,2023-10-05,2023-11-09,2023-11-15,2023-11-17,2023-11-17,65,6,6,26,16,2,55.980059999999995,37.18781,Нет данных,Монолитный,Нет данных,Нет данных,-1.0,2022.0,270.0,-1.0,Нет данных,Зеленоград,0.95,15.0,Нет данных,Нет данных,0.0,0.0,Нет данных,Нет данных,https://178fz.roseltorg.ru/#com/procedure/view/procedure/483114,Нет данных,https://investmoscow.ru/tenders/tender/19328500,https://flatinfo.ru/h_info1.asp?hid=354969
#ГП16938340,Продажа,Квартира,77:10:0002005:8322,Зеленоградский,Старое Крюково,"г. Москва, г. Зеленоград, аллея. Солнечная, к. 936",134.0,3,7,14.0,0.0,81.7,17336740,212200.0,100000,173367,Открытый аукцион в электронной форме,2023-10-05,2023-11-09,2023-11-15,2023-11-17,2023-11-17,65,6,6,26,16,2,55.980059999999995,37.18781,Нет данных,Монолитный,Нет данных,Нет данных,-1.0,2022.0,270.0,-1.0,Нет данных,Зеленоград,0.95,15.0,Нет данных,Нет данных,0.0,0.0,Нет данных,Нет данных,https://178fz.roseltorg.ru/#com/procedure/view/procedure/483030,Нет данных,https://investmoscow.ru/tenders/tender/19328495,https://flatinfo.ru/h_info1.asp?hid=354969
#ГП16938336,Продажа,Квартира,77:10:0002005:8293,Зеленоградский,Старое Крюково,"г. Москва, г. Зеленоград, аллея. Солнечная, к. 936",108.0,1,14,14.0,0.0,41.2,9422440,228700.0,100000,94224,Открытый аукцион в электронной форме,2023-10-05,2023-11-09,2023-11-15,2023-11-17,2023-11-17,65,6,6,26,16,2,55.980059999999995,37.18781,Нет данных,Монолитный,Нет данных,Нет данных,-1.0,2022.0,270.0,-1.0,Нет данных,Зеленоград,0.95,15.0,Нет данных,Нет данных,0.0,0.0,Нет данных,Нет данных,https://178fz.roseltorg.ru/#com/procedure/view/procedure/483080,Нет данных,https://investmoscow.ru/tenders/tender/19328463,https://flatinfo.ru/h_info1.asp?hid=354969
#ГП16938334,Продажа,Квартира,77:10:0002005:8598,Зеленоградский,Старое Крюково,"г. Москва, г. Зеленоград, аллея. Солнечная, к. 936",44.0,3,12,14.0,0.0,81.8,17529740,214300.0,100000,175297,Открытый аукцион в электронной форме,2023-10-05,2023-11-09,2023-11-15,2023-11-17,2023-11-17,65,6,6,26,16,2,55.980059999999995,37.18781,Нет данных,Монолитный,Нет данных,Нет данных,-1.0,2022.0,270.0,-1.0,Нет данных,Зеленоград,0.95,15.0,Нет данных,Нет данных,0.0,0.0,Нет данных,Нет данных,https://178fz.roseltorg.ru/#com/procedure/view/procedure/483031,Нет данных,https://investmoscow.ru/tenders/tender/19328437,https://flatinfo.ru/h_info1.asp?hid=354969
#ГП16938325,Продажа,Квартира,77:10:0002005:8393,Зеленоградский,Старое Крюково,"г. Москва, г. Зеленоград, аллея. Солнечная, к. 936",1.0,3,2,14.0,0.0,74.2,15589420,210100.0,100000,155894,Открытый аукцион в электронной форме,2023-10-05,2023-11-09,2023-11-15,2023-11-17,2023-11-17,65,6,6,26,16,2,55.980059999999995,37.18781,Нет данных,Монолитный,Нет данных,Нет данных,-1.0,2022.0,270.0,-1.0,Нет данных,Зеленоград,0.95,15.0,Нет данных,Нет данных,0.0,0.0,Нет данных,Нет данных,https://178fz.roseltorg.ru/#com/procedure/view/procedure/482563,Нет данных,https://investmoscow.ru/tenders/tender/19327621,https://flatinfo.ru/h_info1.asp?hid=354969
#ГП16938490,Продажа,Квартира,77:10:0002005:8354,Зеленоградский,Старое Крюково,"г. Москва, г. Зеленоград, аллея. Солнечная, к. 936",163.0,3,2,14.0,0.0,74.5,15652450,210100.0,100000,156524,Открытый аукцион в электронной форме,2023-10-16,2023-11-16,2023-11-23,2023-11-27,2023-11-27,65,6,6,26,16,2,55.980059999999995,37.18781,Нет данных,Монолитный,Нет данных,Нет данных,-1.0,2022.0,270.0,-1.0,Нет данных,Зеленоград,0.95,15.0,Нет данных,Нет данных,0.0,0.0,Нет данных,Нет данных,https://178fz.roseltorg.ru/#com/procedure/view/procedure/486477,Нет данных,https://investmoscow.ru/tenders/tender/19337231,https://flatinfo.ru/h_info1.asp?hid=354969
#ГП16938489,Продажа,Квартира,77:10:0002005:8353,Зеленоградский,Старое Крюково,"г. Москва, г. Зеленоград, аллея. Солнечная, к. 936",162.0,3,14,14.0,0.0,81.5,17465450,214300.0,100000,174654,Открытый аукцион в электронной форме,2023-10-16,2023-11-16,2023-11-23,2023-11-27,2023-11-27,65,6,6,26,16,2,55.980059999999995,37.18781,Нет данных,Монолитный,Нет данных,Нет данных,-1.0,2022.0,270.0,-1.0,Нет данных,Зеленоград,0.95,15.0,Нет данных,Нет данных,0.0,0.0,Нет данных,Нет данных,https://178fz.roseltorg.ru/#com/procedure/view/procedure/486365,Нет данных,https://investmoscow.ru/tenders/tender/19337224,https://flatinfo.ru/h_info1.asp?hid=354969
#ГП16938482,Продажа,Квартира,77:10:0002005:8332,Зеленоградский,Старое Крюково,"г. Москва, г. Зеленоград, аллея. Солнечная, к. 936",143.0,3,10,14.0,0.0,81.4,17273080,212200.0,100000,172730,Открытый аукцион в электронной форме,2023-10-16,2023-11-16,2023-11-23,2023-11-27,2023-11-27,65,6,6,26,16,2,55.980059999999995,37.18781,Нет данных,Монолитный,Нет данных,Нет данных,-1.0,2022.0,270.0,-1.0,Нет данных,Зеленоград,0.95,15.0,Нет данных,Нет данных,0.0,0.0,Нет данных,Нет данных,https://178fz.roseltorg.ru/#com/procedure/view/procedure/486768,Нет данных,https://investmoscow.ru/tenders/tender/19337059,https://flatinfo.ru/h_info1.asp?hid=354969
#ГП16938491,Продажа,Квартира,77:10:0002005:8423,Зеленоградский,Старое Крюково,"г. Москва, г. Зеленоград, аллея. Солнечная, к. 936",225.0,1,14,14.0,0.0,41.1,9399570,228700.0,100000,93995,Открытый аукцион в электронной форме,2023-10-16,2023-11-16,2023-11-23,2023-11-27,2023-11-27,65,6,6,26,16,2,55.980059999999995,37.18781,Нет данных,Монолитный,Нет данных,Нет данных,-1.0,2022.0,270.0,-1.0,Нет данных,Зеленоград,0.95,15.0,Нет данных,Нет данных,0.0,0.0,Нет данных,Нет данных,https://178fz.roseltorg.ru/#com/procedure/view/procedure/486364,Нет данных,https://investmoscow.ru/tenders/tender/19337239,https://flatinfo.ru/h_info1.asp?hid=354969
#ГП16938485,Продажа,Квартира,77:10:0002005:8340,Зеленоградский,Старое Крюково,"г. Москва, г. Зеленоград, аллея. Солнечная, к. 936",150.0,3,11,14.0,0.0,81.5,17465450,214300.0,100000,174654,Открытый аукцион в электронной форме,2023-10-16,2023-11-16,2023-11-23,2023-11-27,2023-11-27,65,6,6,26,16,2,55.980059999999995,37.18781,Нет данных,Монолитный,Нет данных,Нет данных,-1.0,2022.0,270.0,-1.0,Нет данных,Зеленоград,0.95,15.0,Нет данных,Нет данных,0.0,0.0,Нет данных,Нет данных,https://178fz.roseltorg.ru/#com/procedure/view/procedure/486779,Нет данных,https://investmoscow.ru/tenders/tender/19337168,https://flatinfo.ru/h_info1.asp?hid=354969
#ГП16938488,Продажа,Квартира,77:10:0002005:8350,Зеленоградский,Старое Крюково,"г. Москва, г. Зеленоград, аллея. Солнечная, к. 936",159.0,3,14,14.0,0.0,81.4,17444020,214300.0,100000,174440,Открытый аукцион в электронной форме,2023-10-16,2023-11-16,2023-11-23,2023-11-27,2023-11-27,65,6,6,26,16,2,55.980059999999995,37.18781,Нет данных,Монолитный,Нет данных,Нет данных,-1.0,2022.0,270.0,-1.0,Нет данных,Зеленоград,0.95,15.0,Нет данных,Нет данных,0.0,0.0,Нет данных,Нет данных,https://178fz.roseltorg.ru/#com/procedure/view/procedure/486355,Нет данных,https://investmoscow.ru/tenders/tender/19337214,https://flatinfo.ru/h_info1.asp?hid=354969
#ГП16938486,Продажа,Квартира,77:10:0002005:8341,Зеленоградский,Старое Крюково,"г. Москва, г. Зеленоград, аллея. Солнечная, к. 936",151.0,3,12,14.0,0.0,81.5,17465450,214300.0,100000,174654,Открытый аукцион в электронной форме,2023-10-16,2023-11-16,2023-11-23,2023-11-27,2023-11-27,65,6,6,26,16,2,55.980059999999995,37.18781,Нет данных,Монолитный,Нет данных,Нет данных,-1.0,2022.0,270.0,-1.0,Нет данных,Зеленоград,0.95,15.0,Нет данных,Нет данных,0.0,0.0,Нет данных,Нет данных,https://178fz.roseltorg.ru/#com/procedure/view/procedure/486479,Нет данных,https://investmoscow.ru/tenders/tender/19337181,https://flatinfo.ru/h_info1.asp?hid=354969
#ГП16938484,Продажа,Квартира,77:10:0002005:8336,Зеленоградский,Старое Крюково,"г. Москва, г. Зеленоград, аллея. Солнечная, к. 936",147.0,3,11,14.0,0.0,81.7,17508310,214300.0,100000,175083,Открытый аукцион в электронной форме,2023-10-16,2023-11-16,2023-11-23,2023-11-27,2023-11-27,65,6,6,26,16,2,55.980059999999995,37.18781,Нет данных,Монолитный,Нет данных,Нет данных,-1.0,2022.0,270.0,-1.0,Нет данных,Зеленоград,0.95,15.0,Нет данных,Нет данных,0.0,0.0,Нет данных,Нет данных,https://178fz.roseltorg.ru/#com/procedure/view/procedure/486775,Нет данных,https://investmoscow.ru/tenders/tender/19337155,https://flatinfo.ru/h_info1.asp?hid=354969
#ГП16938481,Продажа,Квартира,77:10:0002005:8328,Зеленоградский,Старое Крюково,"г. Москва, г. Зеленоград, аллея. Солнечная, к. 936",139.0,3,9,14.0,0.0,81.4,17273080,212200.0,100000,172730,Открытый аукцион в электронной форме,2023-10-16,2023-11-16,2023-11-23,2023-11-27,2023-11-27,65,6,6,26,16,2,55.980059999999995,37.18781,Нет данных,Монолитный,Нет данных,Нет данных,-1.0,2022.0,270.0,-1.0,Нет данных,Зеленоград,0.95,15.0,Нет данных,Нет данных,0.0,0.0,Нет данных,Нет данных,https://178fz.roseltorg.ru/#com/procedure/view/procedure/486765,Нет данных,https://investmoscow.ru/tenders/tender/19336988,https://flatinfo.ru/h_info1.asp?hid=354969
#ГП16938483,Продажа,Квартира,77:10:0002005:8335,Зеленоградский,Старое Крюково,"г. Москва, г. Зеленоград, аллея. Солнечная, к. 936",146.0,3,10,14.0,0.0,81.4,17273080,212200.0,100000,172730,Открытый аукцион в электронной форме,2023-10-16,2023-11-16,2023-11-23,2023-11-27,2023-11-27,65,6,6,26,16,2,55.980059999999995,37.18781,Нет данных,Монолитный,Нет данных,Нет данных,-1.0,2022.0,270.0,-1.0,Нет данных,Зеленоград,0.95,15.0,Нет данных,Нет данных,0.0,0.0,Нет данных,Нет данных,https://178fz.roseltorg.ru/#com/procedure/view/procedure/486773,Нет данных,https://investmoscow.ru/tenders/tender/19337132,https://flatinfo.ru/h_info1.asp?hid=354969
#ГП16938487,Продажа,Квартира,77:10:0002005:8348,Зеленоградский,Старое Крюково,"г. Москва, г. Зеленоград, аллея. Солнечная, к. 936",158.0,3,13,14.0,0.0,81.3,17422590,214300.0,100000,174225,Открытый аукцион в электронной форме,2023-10-16,2023-11-16,2023-11-23,2023-11-27,2023-11-27,65,6,6,26,16,2,55.980059999999995,37.18781,Нет данных,Монолитный,Нет данных,Нет данных,-1.0,2022.0,270.0,-1.0,Нет данных,Зеленоград,0.95,15.0,Нет данных,Нет данных,0.0,0.0,Нет данных,Нет данных,https://178fz.roseltorg.ru/#com/procedure/view/procedure/486353,Нет данных,https://investmoscow.ru/tenders/tender/19337196,https://flatinfo.ru/h_info1.asp?hid=354969
#ГП16938417,Продажа,Квартира,77:17:0110205:13806,Новомосковский,СП Московский,"г. Москва, г. Московский, ул. Москвитина, д. 1, к. 1",76.0,3,13,25.0,0.0,74.9,9998000,133484.65,499900,99980,Открытый аукцион в электронной форме,2023-10-05,2023-11-10,2023-11-17,2023-11-21,2023-11-21,65,12,4,50,18,1,55.59932,37.356559999999995,Железобетонные,Смешанный тип,Из прочих материалов,Нет данных,-1.0,2016.0,266.0,3.0,Исправный,Филатов Луг,3.25,49.0,7.70000060000034e+16,Нет данных,0.0,0.0,Нет данных,Нет данных,https://www.roseltorg.ru/procedure/21000005000000015794,https://torgi.gov.ru/new/public/notices/view/21000005000000015794,https://investmoscow.ru/tenders/tender/19332213,https://flatinfo.ru/h_info1.asp?hid=294658
#ГП16936349,Продажа,Квартира,77:10:0006008:7320,Зеленоградский,Крюково,"г. Москва, г. Зеленоград, к. 2044",86.0,4,8,9.0,0.0,93.6,13035000,139262.82,651750,130350,Открытый аукцион в электронной форме,2023-10-05,2023-11-10,2023-11-17,2023-11-21,2023-11-21,38,1,2,21,4,3,55.97108000000001,37.17488,Нет данных,Монолитный,Железобетонные Монолитные,Нет данных,-1.0,2014.0,-1.0,2.0,Исправный,Зеленоград,1.1,17.0,7700000200000.0,Нет данных,0.0,0.0,Нет данных,Нет данных,https://www.roseltorg.ru/procedure/21000005000000015771,https://torgi.gov.ru/new/public/notices/view/21000005000000015771,https://investmoscow.ru/tenders/tender/19327199,https://flatinfo.ru/h_info1.asp?hid=242064
#ГП16938478,Продажа,Квартира,77:05:0007005:5342,Южный,Чертаново Центральное,"г. Москва, ул. Кировоградская, д. 32, к. 3",118.0,2,6,12.0,0.0,44.3,9969000,225033.86,498450,99690,Открытый аукцион в электронной форме,2023-10-16,2023-11-16,2023-11-21,2023-11-23,2023-11-23,71,12,6,27,39,-1,55.60781,37.59635,Железобетонные,Панельный,Крупнопанельные,муниципальный,628.0,1972.0,264.0,2.0,Исправный,Пражская,0.7,11.0,7.70000000001468e+16,Нет данных,0.0,0.0,Нет данных,Нет данных,https://www.roseltorg.ru/procedure/21000005000000016029,https://torgi.gov.ru/new/public/notices/view/21000005000000016029,https://investmoscow.ru/tenders/tender/19347808,https://flatinfo.ru/h_info1.asp?hid=5624
#ГП16938479,Продажа,Квартира,77:04:0004019:19425,Юго-Восточный,Марьино,"г. Москва, б-р. Новочеркасский, д. 30",102.0,2,10,16.0,0.0,50.6,10605000,209584.98,530250,106050,Открытый аукцион в электронной форме,2023-10-16,2023-11-16,2023-11-21,2023-11-23,2023-11-23,54,17,5,25,18,-1,55.64603,37.72575,Железобетонные,Панельный,Крупнопанельные,муниципальный,559.0,1981.0,264.0,1.0,Исправный,Марьино,1.25,19.0,7.70000000000203e+16,Нет данных,0.0,0.0,Нет данных,Нет данных,Нет данных,Нет данных,https://investmoscow.ru/tenders/tender/19347915,https://flatinfo.ru/h_info1.asp?hid=11950
#ГП16938453,Продажа,Квартира,77:06:0008007:3394,Юго-Западный,Коньково,"г. Москва, ул. Островитянова, д. 47",43.0,1,7,14.0,0.0,34.8,9168000,263448.28,458400,91680,Открытый аукцион в электронной форме,2023-10-16,2023-11-16,2023-11-21,2023-11-23,2023-11-23,43,5,4,18,6,-1,55.63489000000001,37.54115,железобетонные,Панельный,Крупноблочные,муниципальный,193.0,1973.0,264.0,2.0,Исправный,Беляево,1.3,20.0,7.7000000000216e+16,Нет данных,0.0,0.0,Нет данных,Нет данных,https://www.roseltorg.ru/procedure/21000005000000016048,https://torgi.gov.ru/new/public/notices/view/21000005000000016048,https://investmoscow.ru/tenders/tender/19346693,https://flatinfo.ru/h_info1.asp?hid=10557
#ГП16938462,Продажа,Квартира,77:09:0002018:1674,Северный,Дегунино Западное,"г. Москва, ул. Талдомская, д. 15",45.0,1,7,12.0,0.0,34.6,7742000,223757.23,387100,77420,Открытый аукцион в электронной форме,2023-10-16,2023-11-16,2023-11-21,2023-11-23,2023-11-23,95,12,6,14,55,3,55.8736,37.52153,Железобетонные,Блочный,Крупноблочные,ЖСК - жилищно-строительные кооперативы,140.0,1967.0,250.0,2.0,Исправный,Грачёвская,0.95,15.0,7.70000000002863e+16,Нет данных,0.0,0.0,Нет данных,Нет данных,https://www.roseltorg.ru/procedure/21000005000000016033,https://torgi.gov.ru/new/public/notices/view/21000005000000016033,https://investmoscow.ru/tenders/tender/19346841,https://flatinfo.ru/h_info1.asp?hid=84892
#ГП16938476,Продажа,Квартира,77:09:0001008:18154,Северный,Ховрино,"г. Москва, ул. Дыбенко, д. 36, к. 1",131.0,2,2,17.0,0.0,51.1,12127000,237318.98,606350,121270,Открытый аукцион в электронной форме,2023-10-16,2023-11-16,2023-11-21,2023-11-23,2023-11-23,57,33,1,14,19,-1,55.87611999999999,37.48447,Железобетонные,Панельный,Крупнопанельные,муниципальный,480.0,2007.0,275.0,1.0,Исправный,Ховрино,0.35,5.0,7.70000000001254e+16,Нет данных,0.0,0.0,Нет данных,Нет данных,https://www.roseltorg.ru/procedure/21000005000000016044,https://torgi.gov.ru/new/public/notices/view/21000005000000016044,https://investmoscow.ru/tenders/tender/19347613,https://flatinfo.ru/h_info1.asp?hid=151517
#ГП16938475,Продажа,Квартира,77:01:0003057:1446,Центральный,Мещанский,"г. Москва, ул. Верземнека, д. 1",58.0,2,7,8.0,0.0,42.4,11823000,278844.34,591150,118230,Открытый аукцион в электронной форме,2023-10-16,2023-11-16,2023-11-21,2023-11-23,2023-11-23,119,31,20,16,27,1,55.78937,37.62859,железобетонные,Кирпичный,Кирпичные,муниципальный,133.0,1960.0,270.0,1.0,Исправный,Рижская,0.6,9.0,7.70000000000952e+16,Нет данных,0.0,0.0,Нет данных,Нет данных,https://www.roseltorg.ru/procedure/21000005000000016042,https://torgi.gov.ru/new/public/notices/view/21000005000000016042,https://investmoscow.ru/tenders/tender/19347524,https://flatinfo.ru/h_info1.asp?hid=44031
#ГП16938473,Продажа,Квартира,77:01:0006040:1912,Центральный,Таганский,"г. Москва, пр-кт. Волгоградский, д. 1, стр. 1",183.0,1,4,13.0,0.0,26.5,8484000,320150.94,424200,84840,Открытый аукцион в электронной форме,2023-10-16,2023-11-16,2023-11-21,2023-11-23,2023-11-23,180,31,15,11,45,2,55.73319,37.6716,Железобетонные,Блочный,Крупнопанельные,Нет данных,935.0,1968.0,264.0,2.0,Исправный,Пролетарская,0.4,6.0,7.70000000000013e+16,Нет данных,0.0,0.0,Нет данных,Нет данных,https://www.roseltorg.ru/procedure/21000005000000016031,https://torgi.gov.ru/new/public/notices/view/21000005000000016031,https://investmoscow.ru/tenders/tender/19347276,https://flatinfo.ru/h_info1.asp?hid=228552
#ГП16914732,Продажа,Квартира,77:08:0003007:2294,Северо-Западный,Тушино Северное,"г. Москва, ул. Героев Панфиловцев, д. 3, к. 1",401.0,2,3,9.0,0.0,45.9,9550000,208061.0,477500,95500,Открытый аукцион в электронной форме,2023-10-16,2023-11-16,2023-11-21,2023-11-23,2023-11-23,124,14,5,15,37,5,55.855059999999995,37.43584,железобетонные,Панельный,Крупнопанельные,муниципальный,1140.0,1968.0,264.0,1.0,Исправный,Сходненская,0.55,8.0,7.70000000001073e+16,Нет данных,0.0,0.0,Нет данных,Нет данных,https://www.roseltorg.ru/procedure/21000005000000016034,https://torgi.gov.ru/new/public/notices/view/21000005000000016034,https://investmoscow.ru/tenders/tender/19346587,https://flatinfo.ru/h_info1.asp?hid=55108
#ГП16938470,Продажа,Квартира,77:04:0004019:4317,Юго-Восточный,Марьино,"г. Москва, ул. Маршала Голованова, д. 11",439.0,1,9,17.0,0.0,38.1,8293000,217664.04,414650,82930,Открытый аукцион в электронной форме,2023-10-16,2023-11-16,2023-11-21,2023-11-23,2023-11-23,66,15,3,30,27,1,55.6484,37.73003,железобетонные,Панельный,Крупнопанельные,муниципальный,2322.0,1985.0,264.0,1.0,Исправный,Марьино,0.9,13.0,7.70000000000199e+16,Нет данных,0.0,0.0,Нет данных,Нет данных,https://www.roseltorg.ru/procedure/21000005000000016030,https://torgi.gov.ru/new/public/notices/view/21000005000000016030,https://investmoscow.ru/tenders/tender/19347233,https://flatinfo.ru/h_info1.asp?hid=96047
#ГП16899225,Продажа,Квартира,77:02:0023018:1134,Северо-Восточный,Алексеевский,"г. Москва, ул. Павла Корчагина, д. 10",95.0,2,0,8.0,0.0,59.0,8580000,145423.73,429000,85800,Открытый аукцион в электронной форме,2023-10-16,2023-11-17,2023-11-24,2023-11-28,2023-11-28,52,12,2,26,23,3,55.81538000000001,37.65907,Железобетонные,Кирпичный,Кирпичные,муниципальный,641.0,1956.0,280.0,1.0,Исправный,ВДНХ,1.4,21.0,7.70000000003329e+16,Нет данных,0.0,0.0,Нет данных,Нет данных,https://www.roseltorg.ru/procedure/21000005000000016053,https://torgi.gov.ru/new/public/notices/view/21000005000000016053,https://investmoscow.ru/tenders/tender/19358731,https://flatinfo.ru/h_info1.asp?hid=52643
#ГП16934273,Продажа,Квартира,77:01:0001049:1777,Центральный,Хамовники,"г. Москва, пер. Гагаринский, д. 23, стр. 1",57.0,4,2,5.0,0.0,87.9,22566000,256723.55,1128300,225660,Открытый аукцион в электронной форме,2023-10-18,2023-11-20,2023-11-27,2023-11-30,2023-11-30,96,27,37,27,24,-1,55.744640000000004,37.59313,смешанные,Кирпичный,Кирпичные,муниципальный,46.0,1910.0,-1.0,1.0,Исправный,Кропоткинская,0.7,10.0,7.70000000007057e+16,Нет данных,0.0,0.0,Нет данных,Нет данных,https://www.roseltorg.ru/procedure/21000005000000016159,https://torgi.gov.ru/new/public/notices/view/21000005000000016159,https://investmoscow.ru/tenders/tender/19371135,https://flatinfo.ru/h_info1.asp?hid=96546
#ГП16939529,Продажа,Квартира,77:04:0001011:2052,Юго-Восточный,Лефортово,"г. Москва, проезд. Таможенный, д. 12",28.0,2,3,16.0,0.0,51.3,10252000,199844.05,512600,102520,Открытый аукцион в электронной форме,2023-10-27,2023-11-28,2023-12-05,2023-12-08,2023-12-08,31,10,9,4,6,3,55.75145,37.68346,Железобетонные,Панельный,Крупнопанельные,федеральный,676.0,1977.0,260.0,2.0,Исправный,Серп и Молот,0.4,6.0,7.70000000000322e+16,Нет данных,0.0,0.0,Нет данных,Нет данных,https://www.roseltorg.ru/procedure/21000005000000016383,https://torgi.gov.ru/new/public/notices/view/21000005000000016383,https://investmoscow.ru/tenders/tender/19381627,https://flatinfo.ru/h_info1.asp?hid=34466
#ГП16939528,Продажа,Квартира,77:04:0001011:2088,Юго-Восточный,Лефортово,"г. Москва, проезд. Таможенный, д. 12",64.0,2,5,16.0,0.0,36.4,7207000,197994.51,360350,72070,Открытый аукцион в электронной форме,2023-10-27,2023-11-28,2023-12-05,2023-12-08,2023-12-08,31,10,9,4,6,3,55.75145,37.68346,Железобетонные,Панельный,Крупнопанельные,федеральный,676.0,1977.0,260.0,2.0,Исправный,Серп и Молот,0.4,6.0,7.70000000000322e+16,Нет данных,0.0,0.0,Нет данных,Нет данных,https://www.roseltorg.ru/procedure/21000005000000016384,https://torgi.gov.ru/new/public/notices/view/21000005000000016384,https://investmoscow.ru/tenders/tender/19381451,https://flatinfo.ru/h_info1.asp?hid=34466
#ГП16939755,Продажа,Квартира,77:04:0001011:2104,Юго-Восточный,Лефортово,"г. Москва, проезд. Таможенный, д. 12",80.0,2,6,16.0,0.0,35.8,6720000,187709.5,336000,67200,Открытый аукцион в электронной форме,2023-10-30,2023-11-30,2023-12-07,2023-12-11,2023-12-11,31,10,9,4,6,3,55.75145,37.68346,Железобетонные,Панельный,Крупнопанельные,федеральный,676.0,1977.0,260.0,2.0,Исправный,Серп и Молот,0.4,6.0,7.70000000000322e+16,Нет данных,0.0,0.0,Нет данных,Нет данных,https://www.roseltorg.ru/procedure/21000005000000016474,https://torgi.gov.ru/new/public/notices/view/21000005000000016474,https://investmoscow.ru/tenders/tender/19388263,https://flatinfo.ru/h_info1.asp?hid=34466
#ГП16939754,Продажа,Квартира,77:04:0001011:2138,Юго-Восточный,Лефортово,"г. Москва, проезд. Таможенный, д. 12",114.0,3,8,16.0,0.0,36.6,7239000,197786.89,361950,72390,Открытый аукцион в электронной форме,2023-10-30,2023-11-30,2023-12-07,2023-12-11,2023-12-11,31,10,9,4,6,3,55.75145,37.68346,Железобетонные,Панельный,Крупнопанельные,федеральный,676.0,1977.0,260.0,2.0,Исправный,Серп и Молот,0.4,6.0,7.70000000000322e+16,Нет данных,0.0,0.0,Нет данных,Нет данных,https://www.roseltorg.ru/procedure/21000005000000016475,https://torgi.gov.ru/new/public/notices/view/21000005000000016475,https://investmoscow.ru/tenders/tender/19388242,https://flatinfo.ru/h_info1.asp?hid=34466
#ГП16939533,Продажа,Квартира,77:04:0001011:2060,Юго-Восточный,Лефортово,"г. Москва, проезд. Таможенный, д. 12",36.0,3,4,16.0,0.0,35.4,6388000,180451.98,319400,63880,Открытый аукцион в электронной форме,2023-10-30,2023-11-30,2023-12-07,2023-12-11,2023-12-11,31,10,9,4,6,3,55.75145,37.68346,Железобетонные,Панельный,Крупнопанельные,федеральный,676.0,1977.0,260.0,2.0,Исправный,Серп и Молот,0.4,6.0,7.70000000000322e+16,Нет данных,0.0,0.0,Нет данных,Нет данных,https://www.roseltorg.ru/procedure/21000005000000016477,https://torgi.gov.ru/new/public/notices/view/21000005000000016477,https://investmoscow.ru/tenders/tender/19383124,https://flatinfo.ru/h_info1.asp?hid=34466
#ГП16939530,Продажа,Квартира,77:04:0001011:3673,Юго-Восточный,Лефортово,"г. Москва, проезд. Таможенный, д. 12",78.0,1,6,16.0,0.0,22.7,4656000,205110.13,232800,46560,Открытый аукцион в электронной форме,2023-10-30,2023-11-30,2023-12-07,2023-12-11,2023-12-11,31,10,9,4,6,3,55.75145,37.68346,Железобетонные,Панельный,Крупнопанельные,федеральный,676.0,1977.0,260.0,2.0,Исправный,Серп и Молот,0.4,6.0,7.70000000000322e+16,Нет данных,0.0,0.0,Нет данных,Нет данных,https://www.roseltorg.ru/procedure/21000005000000016481,https://torgi.gov.ru/new/public/notices/view/21000005000000016481,https://investmoscow.ru/tenders/tender/19381895,https://flatinfo.ru/h_info1.asp?hid=34466
#ГП16939531,Продажа,Квартира,77:04:0001011:2043,Юго-Восточный,Лефортово,"г. Москва, проезд. Таможенный, д. 12",21.0,1,3,16.0,0.0,19.8,3870000,195454.55,193500,38700,Открытый аукцион в электронной форме,2023-10-30,2023-11-30,2023-12-07,2023-12-11,2023-12-11,31,10,9,4,6,3,55.75145,37.68346,Железобетонные,Панельный,Крупнопанельные,федеральный,676.0,1977.0,260.0,2.0,Исправный,Серп и Молот,0.4,6.0,7.70000000000322e+16,Нет данных,0.0,0.0,Нет данных,Нет данных,https://www.roseltorg.ru/procedure/21000005000000016478,https://torgi.gov.ru/new/public/notices/view/21000005000000016478,https://investmoscow.ru/tenders/tender/19382417,https://flatinfo.ru/h_info1.asp?hid=34466
#ГП16939753,Продажа,Квартира,77:04:0001011:2068,Юго-Восточный,Лефортово,"г. Москва, проезд. Таможенный, д. 12",44.0,1,4,16.0,0.0,19.6,3838000,195816.33,191900,38380,Открытый аукцион в электронной форме,2023-10-30,2023-11-30,2023-12-07,2023-12-11,2023-12-11,31,10,9,4,6,3,55.75145,37.68346,Железобетонные,Панельный,Крупнопанельные,федеральный,676.0,1977.0,260.0,2.0,Исправный,Серп и Молот,0.4,6.0,7.70000000000322e+16,Нет данных,0.0,0.0,Нет данных,Нет данных,https://www.roseltorg.ru/procedure/21000005000000016476,https://torgi.gov.ru/new/public/notices/view/21000005000000016476,https://investmoscow.ru/tenders/tender/19388112,https://flatinfo.ru/h_info1.asp?hid=34466
#ГП16939027,Продажа,Квартира,77:02:0013009:1643,Северо-Восточный,Ярославский,"г. Москва, ш. Ярославское, д. 116, к. 1",611.0,2,6,16.0,0.0,38.7,4945000,127777.78,247250,49450,Открытый аукцион в электронной форме,2023-10-23,2023-11-30,2023-12-07,2023-12-11,2023-12-11,69,12,7,18,29,-1,55.86702,37.70874,Железобетонные,Блочный,Крупноблочные,муниципальный,514.0,1980.0,258.0,4.0,Исправный,Бабушкинская,2.9,44.0,7.70000000003221e+16,Нет данных,0.0,0.0,Нет данных,Нет данных,https://www.roseltorg.ru/procedure/21000005000000016267,https://torgi.gov.ru/new/public/notices/view/21000005000000016267,https://investmoscow.ru/tenders/tender/19361193,https://flatinfo.ru/h_info1.asp?hid=58394
#ГП16938195,Продажа,Квартира,77:17:0120303:3183,Новомосковский,СП Сосенское,"г. Москва, п. Коммунарка, ул. Фитаревская, д. 15",11.0,2,2,26.0,0.0,56.2,9885000,175889.68,494250,98850,Открытый аукцион в электронной форме,2023-09-28,2023-10-31,2023-11-02,2023-11-07,2023-11-07,76,16,3,13,27,5,55.56731,37.48019,Железобетонные,Смешанный тип,Из прочих материалов,Нет данных,-1.0,2013.0,-1.0,3.0,Исправный,Коммунарка,1.1,17.0,7.70170000020007e+16,Нет данных,0.0,0.0,Нет данных,Нет данных,https://www.roseltorg.ru/procedure/21000005000000015637,https://torgi.gov.ru/new/public/notices/view/21000005000000015637,https://investmoscow.ru/tenders/tender/19322636,https://flatinfo.ru/h_info1.asp?hid=242855
#ГП16939138,Продажа,Квартира,77:17:0120303:3019,Новомосковский,СП Сосенское,"г. Москва, п. Коммунарка, ул. Фитаревская, д. 15",7.0,3,1,26.0,0.0,46.6,8455000,181437.77,422750,84550,Открытый аукцион в электронной форме,2023-10-19,2023-11-20,2023-11-27,2023-11-30,2023-11-30,76,16,3,13,27,5,55.56731,37.48019,Железобетонные,Смешанный тип,Из прочих материалов,Нет данных,-1.0,2013.0,-1.0,3.0,Исправный,Коммунарка,1.1,17.0,7.70170000020007e+16,Нет данных,0.0,0.0,Нет данных,Нет данных,https://www.roseltorg.ru/procedure/21000005000000016199,https://torgi.gov.ru/new/public/notices/view/21000005000000016199,https://investmoscow.ru/tenders/tender/19364262,https://flatinfo.ru/h_info1.asp?hid=242855
#ГП16939140,Продажа,Квартира,77:17:0120303:3155,Новомосковский,СП Сосенское,"г. Москва, п. Коммунарка, ул. Фитаревская, д. 15",3.0,3,1,26.0,0.0,57.3,10083000,175968.59,504150,100830,Открытый аукцион в электронной форме,2023-10-19,2023-11-20,2023-11-27,2023-11-30,2023-11-30,76,16,3,13,27,5,55.56731,37.48019,Железобетонные,Смешанный тип,Из прочих материалов,Нет данных,-1.0,2013.0,-1.0,3.0,Исправный,Коммунарка,1.1,17.0,7.70170000020007e+16,Нет данных,0.0,0.0,Нет данных,Нет данных,https://www.roseltorg.ru/procedure/21000005000000016201,https://torgi.gov.ru/new/public/notices/view/21000005000000016201,https://investmoscow.ru/tenders/tender/19364846,https://flatinfo.ru/h_info1.asp?hid=242855
#ГП16939137,Продажа,Квартира,77:17:0120303:3126,Новомосковский,СП Сосенское,"г. Москва, п. Коммунарка, ул. Фитаревская, д. 15",2.0,3,1,25.0,0.0,46.6,7981000,171266.09,399050,79810,Открытый аукцион в электронной форме,2023-10-19,2023-11-20,2023-11-27,2023-11-30,2023-11-30,154,43,3,6,38,3,55.56731,37.48019,Железобетонные,Смешанный тип,Из прочих материалов,Нет данных,-1.0,2013.0,-1.0,3.0,Исправный,Коммунарка,1.1,17.0,7.70170000020007e+16,Нет данных,0.0,0.0,Нет данных,Нет данных,https://www.roseltorg.ru/procedure/21000005000000016200,https://torgi.gov.ru/new/public/notices/view/21000005000000016200,https://investmoscow.ru/tenders/tender/19363527,https://flatinfo.ru/h_info1.asp?hid=242855
#ГП16939146,Продажа,Квартира,77:17:0120303:3128,Новомосковский,СП Сосенское,"г. Москва, п. Коммунарка, ул. Фитаревская, д. 15",17.0,3,2,26.0,0.0,45.4,8984000,197885.46,449200,89840,Открытый аукцион в электронной форме,2023-10-19,2023-11-20,2023-11-27,2023-11-30,2023-11-30,76,16,3,13,27,5,55.56731,37.48019,Железобетонные,Смешанный тип,Из прочих материалов,Нет данных,-1.0,2013.0,-1.0,3.0,Исправный,Коммунарка,1.1,17.0,7.70170000020007e+16,Нет данных,0.0,0.0,Нет данных,Нет данных,https://www.roseltorg.ru/procedure/21000005000000016198,https://torgi.gov.ru/new/public/notices/view/21000005000000016198,https://investmoscow.ru/tenders/tender/19365068,https://flatinfo.ru/h_info1.asp?hid=242855
#ГП16938416,Продажа,Квартира,77:17:0120303:9231,Новомосковский,СП Сосенское,"г. Москва, п. Коммунарка, ул. Александры Монаховой, д. 23",313.0,4,13,18.0,1.0,111.3,18555000,166711.59,927750,185550,Открытый аукцион в электронной форме,2023-10-04,2023-11-07,2023-11-14,2023-11-17,2023-11-17,77,15,3,17,26,-1,55.56915,37.47982,Железобетонные,Смешанный тип,Из прочих материалов,Нет данных,-1.0,2014.0,-1.0,2.0,Исправный,Коммунарка,1.25,19.0,Нет данных,Нет данных,0.0,1.0,Нет данных,Нет данных,https://www.roseltorg.ru/procedure/21000005000000015700,https://torgi.gov.ru/new/public/notices/view/21000005000000015700,https://investmoscow.ru/tenders/tender/19332204,https://flatinfo.ru/h_info1.asp?hid=270079
#ГП16938403,Продажа,Квартира,77:17:0120303:9221,Новомосковский,СП Сосенское,"г. Москва, п. Коммунарка, ул. Александры Монаховой, д. 23",317.0,4,14,18.0,1.0,111.3,18555000,166711.59,927750,185550,Открытый аукцион в электронной форме,2023-10-04,2023-11-07,2023-11-14,2023-11-17,2023-11-17,77,15,3,17,26,-1,55.56915,37.47982,Железобетонные,Смешанный тип,Из прочих материалов,Нет данных,-1.0,2014.0,-1.0,2.0,Исправный,Коммунарка,1.25,19.0,Нет данных,Нет данных,0.0,1.0,Нет данных,Нет данных,https://www.roseltorg.ru/procedure/21000005000000015699,https://torgi.gov.ru/new/public/notices/view/21000005000000015699,https://investmoscow.ru/tenders/tender/19331536,https://flatinfo.ru/h_info1.asp?hid=270079
#ГП16927259,Продажа,Квартира,77:07:0013006:23955,Западный,Проспект Вернадского,"г. Москва, пр-кт. Вернадского, д. 54",302.0,1,18,23.0,0.0,34.2,10950840,320200.0,100000,109508,Открытый аукцион в электронной форме,2023-10-02,2023-11-07,2023-11-13,2023-11-15,2023-11-15,36,15,11,21,9,4,55.67374,37.49476,Железобетонные,Монолитный,Железобетонные Монолитные,Нет данных,-1.0,2017.0,275.0,3.0,Исправный,Проспект Вернадского,0.8,12.0,7.70000000000953e+16,Нет данных,0.0,0.0,Нет данных,Нет данных,https://178fz.roseltorg.ru/#com/procedure/view/procedure/481641,Нет данных,https://investmoscow.ru/tenders/tender/19317273,https://flatinfo.ru/h_info1.asp?hid=323844
#ГП16927256,Продажа,Квартира,77:07:0013006:23932,Западный,Проспект Вернадского,"г. Москва, пр-кт. Вернадского, д. 54",279.0,1,13,23.0,0.0,36.0,11304000,314000.0,100000,113040,Открытый аукцион в электронной форме,2023-10-02,2023-11-07,2023-11-13,2023-11-15,2023-11-15,36,15,11,21,9,4,55.67374,37.49476,Железобетонные,Монолитный,Железобетонные Монолитные,Нет данных,-1.0,2017.0,275.0,3.0,Исправный,Проспект Вернадского,0.8,12.0,7.70000000000953e+16,Нет данных,0.0,0.0,Нет данных,Нет данных,https://178fz.roseltorg.ru/#com/procedure/view/procedure/481464,Нет данных,https://investmoscow.ru/tenders/tender/19317124,https://flatinfo.ru/h_info1.asp?hid=323844
#ГП16927257,Продажа,Квартира,77:07:0013006:23952,Западный,Проспект Вернадского,"г. Москва, пр-кт. Вернадского, д. 54",299.0,1,17,23.0,0.0,35.9,11495180,320200.0,100000,114951,Открытый аукцион в электронной форме,2023-10-02,2023-11-07,2023-11-13,2023-11-15,2023-11-15,36,15,11,21,9,4,55.67374,37.49476,Железобетонные,Монолитный,Железобетонные Монолитные,Нет данных,-1.0,2017.0,275.0,3.0,Исправный,Проспект Вернадского,0.8,12.0,7.70000000000953e+16,Нет данных,0.0,0.0,Нет данных,Нет данных,https://178fz.roseltorg.ru/#com/procedure/view/procedure/481617,Нет данных,https://investmoscow.ru/tenders/tender/19317222,https://flatinfo.ru/h_info1.asp?hid=323844
#ГП16927091,Продажа,Квартира,77:07:0013006:23896,Западный,Проспект Вернадского,"г. Москва, пр-кт. Вернадского, д. 54",243.0,1,6,23.0,0.0,34.6,10757140,310900.0,100000,107571,Открытый аукцион в электронной форме,2023-10-02,2023-11-07,2023-11-13,2023-11-15,2023-11-15,36,15,11,21,9,4,55.67374,37.49476,Железобетонные,Монолитный,Железобетонные Монолитные,Нет данных,-1.0,2017.0,275.0,3.0,Исправный,Проспект Вернадского,0.8,12.0,7.70000000000953e+16,Нет данных,0.0,0.0,Нет данных,Нет данных,https://178fz.roseltorg.ru/#com/procedure/view/procedure/481463,Нет данных,https://investmoscow.ru/tenders/tender/19317077,https://flatinfo.ru/h_info1.asp?hid=323844
#ГП16926990,Продажа,Квартира,77:07:0013006:23761,Западный,Проспект Вернадского,"г. Москва, пр-кт. Вернадского, д. 54",108.0,1,23,23.0,0.0,34.1,11024530,323300.0,100000,110245,Открытый аукцион в электронной форме,2023-10-02,2023-11-07,2023-11-13,2023-11-15,2023-11-15,36,15,11,21,9,4,55.67374,37.49476,Железобетонные,Монолитный,Железобетонные Монолитные,Нет данных,-1.0,2017.0,275.0,3.0,Исправный,Проспект Вернадского,0.8,12.0,7.70000000000953e+16,Нет данных,0.0,0.0,Нет данных,Нет данных,https://178fz.roseltorg.ru/#com/procedure/view/procedure/481399,Нет данных,https://investmoscow.ru/tenders/tender/19316995,https://flatinfo.ru/h_info1.asp?hid=323844
#ГП16926964,Продажа,Квартира,77:07:0013006:23707,Западный,Проспект Вернадского,"г. Москва, пр-кт. Вернадского, д. 54",54.0,1,12,23.0,0.0,35.9,11272600,314000.0,100000,112726,Открытый аукцион в электронной форме,2023-10-02,2023-11-07,2023-11-13,2023-11-15,2023-11-15,36,15,11,21,9,4,55.67374,37.49476,Железобетонные,Монолитный,Железобетонные Монолитные,Нет данных,-1.0,2017.0,275.0,3.0,Исправный,Проспект Вернадского,0.8,12.0,7.70000000000953e+16,Нет данных,0.0,0.0,Нет данных,Нет данных,https://178fz.roseltorg.ru/#com/procedure/view/procedure/481451,Нет данных,https://investmoscow.ru/tenders/tender/19316974,https://flatinfo.ru/h_info1.asp?hid=323844
#ГП16927272,Продажа,Квартира,77:07:0013006:23945,Западный,Проспект Вернадского,"г. Москва, пр-кт. Вернадского, д. 54",292.0,1,16,23.0,0.0,34.2,10950840,320200.0,100000,109508,Открытый аукцион в электронной форме,2023-10-02,2023-11-07,2023-11-13,2023-11-15,2023-11-15,36,15,11,21,9,4,55.67374,37.49476,Железобетонные,Монолитный,Железобетонные Монолитные,Нет данных,-1.0,2017.0,275.0,3.0,Исправный,Проспект Вернадского,0.8,12.0,7.70000000000953e+16,Нет данных,0.0,0.0,Нет данных,Нет данных,https://178fz.roseltorg.ru/#com/procedure/view/procedure/481537,Нет данных,https://investmoscow.ru/tenders/tender/19317171,https://flatinfo.ru/h_info1.asp?hid=323844
#ГП16927060,Продажа,Квартира,77:07:0013006:23815,Западный,Проспект Вернадского,"г. Москва, пр-кт. Вернадского, д. 54",162.0,1,12,23.0,0.0,34.2,10738800,314000.0,100000,107388,Открытый аукцион в электронной форме,2023-10-02,2023-11-07,2023-11-13,2023-11-15,2023-11-15,36,15,11,21,9,4,55.67374,37.49476,Железобетонные,Монолитный,Железобетонные Монолитные,Нет данных,-1.0,2017.0,275.0,3.0,Исправный,Проспект Вернадского,0.8,12.0,7.70000000000953e+16,Нет данных,0.0,0.0,Нет данных,Нет данных,https://178fz.roseltorg.ru/#com/procedure/view/procedure/481380,Нет данных,https://investmoscow.ru/tenders/tender/19317028,https://flatinfo.ru/h_info1.asp?hid=323844
#ГП16937977,Продажа,Квартира,77:08:0009014:1537,Северо-Западный,Щукино,"г. Москва, пер. Пехотный 1-й, д. 2",163.0,1,22,27.0,0.0,40.4,13130000,325000.0,100000,131300,Открытый аукцион в электронной форме,2023-10-02,2023-11-07,2023-11-13,2023-11-15,2023-11-15,5,3,4,4,5,15,55.80598000000001,37.48359,Нет данных,Монолитный,Нет данных,Нет данных,-1.0,2021.0,-1.0,-1.0,Нет данных,Стрешнево,1.0,15.0,Нет данных,Нет данных,0.0,0.0,Нет данных,Нет данных,https://178fz.roseltorg.ru/#com/procedure/view/procedure/481830,Нет данных,https://investmoscow.ru/tenders/tender/19316315,https://flatinfo.ru/h_info1.asp?hid=348377
#ГП16938474,Продажа,Квартира,77:03:0003016:5147,Восточный,Преображенское,"г. Москва, ул. Черкизовская Б., д. 6, к. 7",58.0,2,8,12.0,0.0,38.2,8724000,228376.96,436200,87240,Открытый аукцион в электронной форме,2023-10-16,2023-11-16,2023-11-21,2023-11-23,2023-11-23,116,24,3,17,31,1,55.79395,37.721090000000004,железобетонные,Блочный,Крупноблочные,ЖСК - жилищно-строительные кооперативы,-1.0,1966.0,250.0,2.0,Исправный,Преображенская Площадь,0.45,7.0,7.70000000003088e+16,Нет данных,0.0,0.0,Нет данных,Нет данных,https://www.roseltorg.ru/procedure/21000005000000016035,https://torgi.gov.ru/new/public/notices/view/21000005000000016035,https://investmoscow.ru/tenders/tender/19347386,https://flatinfo.ru/h_info1.asp?hid=46120
#ГП16936729,Продажа,Квартира,77:22:0030118:617,Троицкий,СП Михайлово-Ярцевское,"г. Москва, п. Секерино, д. 1А",13.0,3,1,3.0,0.0,67.1,9495000,141505.22,474750,94950,Открытый аукцион в электронной форме,2023-10-18,2023-11-20,2023-11-27,2023-11-30,2023-11-30,1,-1,-1,-1,-1,-1,55.41865,37.1511,Железобетонные,Смешанный тип,Из прочих материалов,Нет данных,54.0,2013.0,-1.0,-1.0,Исправный,Отсутствует в пешей доступности,20.0,90.0,7701000001200.0,Нет данных,0.0,0.0,Нет данных,Нет данных,https://www.roseltorg.ru/procedure/21000005000000016156,https://torgi.gov.ru/new/public/notices/view/21000005000000016156,https://investmoscow.ru/tenders/tender/19371152,https://flatinfo.ru/h_info1.asp?hid=267231
#ГП16936730,Продажа,Квартира,77:22:0030118:623,Троицкий,СП Михайлово-Ярцевское,"г. Москва, п. Секерино, д. 1А",17.0,3,2,3.0,0.0,67.0,10305000,153805.97,515250,103050,Открытый аукцион в электронной форме,2023-10-18,2023-11-20,2023-11-27,2023-11-30,2023-11-30,1,-1,-1,-1,-1,-1,55.41865,37.1511,Железобетонные,Смешанный тип,Из прочих материалов,Нет данных,54.0,2013.0,-1.0,-1.0,Исправный,Отсутствует в пешей доступности,20.0,90.0,7701000001200.0,Нет данных,0.0,0.0,Нет данных,Нет данных,https://www.roseltorg.ru/procedure/21000005000000016155,https://torgi.gov.ru/new/public/notices/view/21000005000000016155,https://investmoscow.ru/tenders/tender/19371193,https://flatinfo.ru/h_info1.asp?hid=267231
#ГП16939025,Продажа,Квартира,50:55:0000000:11748,Нет данных,Подольск,"г. Москва, г. Подольск, ул. Юбилейная, д. 3, к. 2",170.0,1,14,18.0,1.0,38.1,3201000,84015.75,160050,32010,Открытый аукцион в электронной форме,2023-10-18,2023-11-20,2023-11-27,2023-11-30,2023-11-30,-1,-1,-1,-1,-1,-1,55.42032,37.49811,железобетонные,Панельный,Из прочих материалов,Нет данных,751.0,2009.0,-1.0,2.0,Исправный,Подольск,4.55,68.0,Нет данных,Нет данных,0.0,1.0,Нет данных,Нет данных,https://www.roseltorg.ru/procedure/21000005000000016188,https://torgi.gov.ru/new/public/notices/view/21000005000000016188,https://investmoscow.ru/tenders/tender/19360207,https://flatinfo.ru/h_info1.asp?hid=224788
#ГП16939434,Продажа,Квартира,77:01:0002003:2693,Центральный,Якиманка,"г. Москва, ул. Якиманка Б., д. 35, стр. 1",9.0,1,5,6.0,0.0,62.7,13799000,220079.74,689950,137990,Открытый аукцион в электронной форме,2023-10-26,2023-11-27,2023-12-04,2023-12-07,2023-12-07,152,33,17,32,42,8,55.73459,37.61354,деревянные,Кирпичный,Кирпичные,муниципальный,31.0,1900.0,-1.0,1.0,Исправный,Полянка,0.45,7.0,7.70000000007019e+16,Нет данных,0.0,0.0,Нет данных,Нет данных,https://www.roseltorg.ru/procedure/21000005000000016353,https://torgi.gov.ru/new/public/notices/view/21000005000000016353,https://investmoscow.ru/tenders/tender/19378089,https://flatinfo.ru/h_info1.asp?hid=184935
#ГП16939405,Продажа,Квартира,77:07:0015007:2828,Западный,Солнцево,"г. Москва, ул. Авиаторов, д. 11, к. 1",1107.0,2,11,12.0,0.0,39.7,5597000,140982.37,279850,55970,Открытый аукцион в электронной форме,2023-10-26,2023-11-27,2023-12-04,2023-12-07,2023-12-07,6,2,3,11,5,3,55.63918,37.40898,железобетонные,Панельный,Крупнопанельные,федеральный,-1.0,1984.0,258.0,2.0,Исправный,Солнцево,1.65,25.0,7.70000000000711e+16,Нет данных,0.0,0.0,Нет данных,Нет данных,https://www.roseltorg.ru/procedure/21000005000000016363,https://torgi.gov.ru/new/public/notices/view/21000005000000016363,https://investmoscow.ru/tenders/tender/19374915,https://flatinfo.ru/h_info1.asp?hid=8883
#ГП16939429,Продажа,Квартира,77:02:0004001:2837,Северо-Восточный,Медведково Северное,"г. Москва, проезд. Студеный, д. 13",Нет данных,2,1,14.0,0.0,35.6,5418000,152191.01,270900,54180,Открытый аукцион в электронной форме,2023-10-26,2023-11-27,2023-12-04,2023-12-07,2023-12-07,53,3,4,17,16,-1,55.893519999999995,37.66598,Железобетонные,Панельный,Крупноблочные,муниципальный,220.0,1975.0,264.0,2.0,Исправный,Медведково,0.8,12.0,7.7000000000282e+16,Нет данных,0.0,0.0,Нет данных,Нет данных,https://www.roseltorg.ru/procedure/21000005000000016361,https://torgi.gov.ru/new/public/notices/view/21000005000000016361,https://investmoscow.ru/tenders/tender/19378421,https://flatinfo.ru/h_info1.asp?hid=61301
#ГП16939433,Продажа,Квартира,77:02:0004001:3240,Северо-Восточный,Медведково Северное,"г. Москва, проезд. Студеный, д. 19",128.0,2,11,12.0,0.0,38.1,5865000,153937.01,293250,58650,Открытый аукцион в электронной форме,2023-10-26,2023-11-27,2023-12-04,2023-12-07,2023-12-07,152,33,17,32,42,8,55.893390000000004,37.67033,Железобетонные,Блочный,Крупноблочные,федеральный,389.0,1981.0,258.0,2.0,Исправный,Медведково,0.95,14.0,7.7000000000282e+16,Нет данных,0.0,0.0,Нет данных,Нет данных,https://www.roseltorg.ru/procedure/21000005000000016354,https://torgi.gov.ru/new/public/notices/view/21000005000000016354,https://investmoscow.ru/tenders/tender/19379984,https://flatinfo.ru/h_info1.asp?hid=61304
#ГП16939432,Продажа,Квартира,77:02:0004001:3193,Северо-Восточный,Медведково Северное,"г. Москва, проезд. Студеный, д. 19",80.0,1,7,12.0,0.0,18.7,3798000,203101.6,189900,37980,Открытый аукцион в электронной форме,2023-10-26,2023-11-27,2023-12-04,2023-12-07,2023-12-07,152,33,17,32,42,8,55.893390000000004,37.67033,Железобетонные,Блочный,Крупноблочные,федеральный,389.0,1981.0,258.0,2.0,Исправный,Медведково,0.95,14.0,7.7000000000282e+16,Нет данных,0.0,0.0,Нет данных,Нет данных,https://www.roseltorg.ru/procedure/21000005000000016355,https://torgi.gov.ru/new/public/notices/view/21000005000000016355,https://investmoscow.ru/tenders/tender/19379885,https://flatinfo.ru/h_info1.asp?hid=61304
#ГП16939430,Продажа,Квартира,77:02:0004001:3250,Северо-Восточный,Медведково Северное,"г. Москва, проезд. Студеный, д. 19",138.0,2,12,12.0,0.0,38.6,6066000,157150.26,303300,60660,Открытый аукцион в электронной форме,2023-10-26,2023-11-27,2023-12-04,2023-12-07,2023-12-07,152,33,17,32,42,8,55.893390000000004,37.67033,Железобетонные,Блочный,Крупноблочные,федеральный,389.0,1981.0,258.0,2.0,Исправный,Медведково,0.95,14.0,7.7000000000282e+16,Нет данных,0.0,0.0,Нет данных,Нет данных,https://www.roseltorg.ru/procedure/21000005000000016360,https://torgi.gov.ru/new/public/notices/view/21000005000000016360,https://investmoscow.ru/tenders/tender/19379204,https://flatinfo.ru/h_info1.asp?hid=61304
#ГП16939428,Продажа,Квартира,77:02:0004001:3180,Северо-Восточный,Медведково Северное,"г. Москва, проезд. Студеный, д. 19",67.0,1,6,12.0,0.0,18.2,3706000,203626.37,185300,37060,Открытый аукцион в электронной форме,2023-10-26,2023-11-27,2023-12-04,2023-12-07,2023-12-07,152,33,17,32,42,8,55.893390000000004,37.67033,Железобетонные,Блочный,Крупноблочные,федеральный,389.0,1981.0,258.0,2.0,Исправный,Медведково,0.95,14.0,7.7000000000282e+16,Нет данных,0.0,0.0,Нет данных,Нет данных,https://www.roseltorg.ru/procedure/21000005000000016362,https://torgi.gov.ru/new/public/notices/view/21000005000000016362,https://investmoscow.ru/tenders/tender/19378227,https://flatinfo.ru/h_info1.asp?hid=61304
#ГП16939431,Продажа,Квартира,77:02:0004001:3159,Северо-Восточный,Медведково Северное,"г. Москва, проезд. Студеный, д. 19",45.0,1,5,12.0,0.0,38.6,6925000,179404.15,346250,69250,Открытый аукцион в электронной форме,2023-10-26,2023-11-27,2023-12-04,2023-12-07,2023-12-07,152,33,17,32,42,8,55.893390000000004,37.67033,Железобетонные,Блочный,Крупноблочные,федеральный,389.0,1981.0,258.0,2.0,Исправный,Медведково,0.95,14.0,7.7000000000282e+16,Нет данных,0.0,0.0,Нет данных,Нет данных,https://www.roseltorg.ru/procedure/21000005000000016359,https://torgi.gov.ru/new/public/notices/view/21000005000000016359,https://investmoscow.ru/tenders/tender/19379620,https://flatinfo.ru/h_info1.asp?hid=61304
#ГП16939396,Продажа,Квартира,77:17:0120303:9892,Новомосковский,СП Сосенское,"г. Москва, п. Коммунарка, ул. Фитаревская, д. 21",11.0,2,2,25.0,0.0,56.1,10776000,192085.56,538800,107760,Открытый аукцион в электронной форме,2023-10-24,2023-11-27,2023-12-04,2023-12-07,2023-12-07,64,11,4,7,20,5,55.565380000000005,37.47876,Железобетонные,Монолитный,Из прочих материалов,Нет данных,-1.0,2014.0,-1.0,3.0,Исправный,Коммунарка,0.9,14.0,7.70170000020007e+16,Нет данных,0.0,0.0,Нет данных,Нет данных,https://www.roseltorg.ru/procedure/21000005000000016298,https://torgi.gov.ru/new/public/notices/view/21000005000000016298,https://investmoscow.ru/tenders/tender/19373959,https://flatinfo.ru/h_info1.asp?hid=242860
#ГП16939394,Продажа,Квартира,77:17:0120303:9885,Новомосковский,СП Сосенское,"г. Москва, п. Коммунарка, ул. Фитаревская, д. 21",6.0,2,1,25.0,0.0,57.5,10127000,176121.74,506350,101270,Открытый аукцион в электронной форме,2023-10-24,2023-11-27,2023-12-04,2023-12-07,2023-12-07,64,11,4,7,20,5,55.565380000000005,37.47876,Железобетонные,Монолитный,Из прочих материалов,Нет данных,-1.0,2014.0,-1.0,3.0,Исправный,Коммунарка,0.9,14.0,7.70170000020007e+16,Нет данных,0.0,0.0,Нет данных,Нет данных,https://www.roseltorg.ru/procedure/21000005000000016297,https://torgi.gov.ru/new/public/notices/view/21000005000000016297,https://investmoscow.ru/tenders/tender/19373837,https://flatinfo.ru/h_info1.asp?hid=242860
#ГП16939397,Продажа,Квартира,77:17:0120303:9884,Новомосковский,СП Сосенское,"г. Москва, п. Коммунарка, ул. Фитаревская, д. 21",10.0,2,2,25.0,0.0,45.4,8489000,186982.38,424450,84890,Открытый аукцион в электронной форме,2023-10-24,2023-11-27,2023-12-04,2023-12-07,2023-12-07,64,11,4,7,20,5,55.565380000000005,37.47876,Железобетонные,Монолитный,Из прочих материалов,Нет данных,-1.0,2014.0,-1.0,3.0,Исправный,Коммунарка,0.9,14.0,7.70170000020007e+16,Нет данных,0.0,0.0,Нет данных,Нет данных,https://www.roseltorg.ru/procedure/21000005000000016299,https://torgi.gov.ru/new/public/notices/view/21000005000000016299,https://investmoscow.ru/tenders/tender/19374028,https://flatinfo.ru/h_info1.asp?hid=242860
#ГП16939403,Продажа,Квартира,77:17:0120303:9891,Новомосковский,СП Сосенское,"г. Москва, п. Коммунарка, ул. Фитаревская, д. 21",7.0,2,1,25.0,0.0,46.5,8255000,177526.88,412750,82550,Открытый аукцион в электронной форме,2023-10-25,2023-11-27,2023-12-04,2023-12-07,2023-12-07,64,11,4,7,20,5,55.565380000000005,37.47876,Железобетонные,Монолитный,Из прочих материалов,Нет данных,-1.0,2014.0,-1.0,3.0,Исправный,Коммунарка,0.9,14.0,7.70170000020007e+16,Нет данных,0.0,0.0,Нет данных,Нет данных,https://www.roseltorg.ru/procedure/21000005000000016337,https://torgi.gov.ru/new/public/notices/view/21000005000000016337,https://investmoscow.ru/tenders/tender/19374638,https://flatinfo.ru/h_info1.asp?hid=242860
#ГП16939402,Продажа,Квартира,77:17:0120303:9899,Новомосковский,СП Сосенское,"г. Москва, п. Коммунарка, ул. Фитаревская, д. 21",17.0,2,2,25.0,0.0,45.4,8791000,193634.36,439550,87910,Открытый аукцион в электронной форме,2023-10-25,2023-11-27,2023-12-04,2023-12-07,2023-12-07,64,11,4,7,20,5,55.565380000000005,37.47876,Железобетонные,Монолитный,Из прочих материалов,Нет данных,-1.0,2014.0,-1.0,3.0,Исправный,Коммунарка,0.9,14.0,7.70170000020007e+16,Нет данных,0.0,0.0,Нет данных,Нет данных,https://www.roseltorg.ru/procedure/21000005000000016338,https://torgi.gov.ru/new/public/notices/view/21000005000000016338,https://investmoscow.ru/tenders/tender/19374358,https://flatinfo.ru/h_info1.asp?hid=242860
#ГП16939408,Продажа,Квартира,77:17:0120303:4183,Новомосковский,СП Сосенское,"г. Москва, п. Коммунарка, ул. Фитаревская, д. 19, к. 1",133.0,2,1,25.0,1.0,56.6,9418000,166395.76,470900,94180,Открытый аукцион в электронной форме,2023-10-24,2023-11-27,2023-12-04,2023-12-07,2023-12-07,75,13,4,10,24,5,55.566280000000006,37.47846,Железобетонные,Смешанный тип,Из прочих материалов,Нет данных,-1.0,2013.0,-1.0,2.0,Исправный,Коммунарка,0.95,14.0,7.70170000020007e+16,Нет данных,0.0,1.0,Нет данных,Нет данных,https://www.roseltorg.ru/procedure/21000005000000016300,https://torgi.gov.ru/new/public/notices/view/21000005000000016300,https://investmoscow.ru/tenders/tender/19376131,https://flatinfo.ru/h_info1.asp?hid=242859
#ГП16939462,Продажа,Квартира,77:17:0120303:4187,Новомосковский,СП Сосенское,"г. Москва, п. Коммунарка, ул. Фитаревская, д. 19, к. 1",7.0,2,1,25.0,1.0,56.4,9718000,172304.96,485900,97180,Открытый аукцион в электронной форме,2023-10-27,2023-11-27,2023-12-04,2023-12-07,2023-12-07,75,13,4,10,24,5,55.566280000000006,37.47846,Железобетонные,Смешанный тип,Из прочих материалов,Нет данных,-1.0,2013.0,-1.0,2.0,Исправный,Коммунарка,0.95,14.0,7.70170000020007e+16,Нет данных,0.0,1.0,Нет данных,Нет данных,https://www.roseltorg.ru/procedure/21000005000000016386,https://torgi.gov.ru/new/public/notices/view/21000005000000016386,https://investmoscow.ru/tenders/tender/19378715,https://flatinfo.ru/h_info1.asp?hid=242859
#ГП16939414,Продажа,Квартира,77:17:0120303:4189,Новомосковский,СП Сосенское,"г. Москва, п. Коммунарка, ул. Фитаревская, д. 19, к. 1",9.0,1,1,25.0,1.0,39.8,7535000,189321.61,376750,75350,Открытый аукцион в электронной форме,2023-10-24,2023-11-27,2023-12-04,2023-12-07,2023-12-07,75,13,4,10,24,5,55.566280000000006,37.47846,Железобетонные,Смешанный тип,Из прочих материалов,Нет данных,-1.0,2013.0,-1.0,2.0,Исправный,Коммунарка,0.95,14.0,7.70170000020007e+16,Нет данных,0.0,1.0,Нет данных,Нет данных,https://www.roseltorg.ru/procedure/21000005000000016301,https://torgi.gov.ru/new/public/notices/view/21000005000000016301,https://investmoscow.ru/tenders/tender/19376541,https://flatinfo.ru/h_info1.asp?hid=242859
#ГП16939461,Продажа,Квартира,77:17:0120303:3290,Новомосковский,СП Сосенское,"г. Москва, п. Коммунарка, ул. Фитаревская, д. 17, к. 1",47.0,2,5,25.0,0.0,45.2,8748000,193539.82,437400,87480,Открытый аукцион в электронной форме,2023-10-27,2023-11-27,2023-12-04,2023-12-07,2023-12-07,78,13,4,14,24,5,55.566869999999994,37.47858,Железобетонные,Смешанный тип,Из прочих материалов,Нет данных,-1.0,2013.0,-1.0,3.0,Исправный,Коммунарка,1.0,15.0,7.70170000020007e+16,Нет данных,0.0,0.0,Нет данных,Нет данных,https://www.roseltorg.ru/procedure/21000005000000016387,https://torgi.gov.ru/new/public/notices/view/21000005000000016387,https://investmoscow.ru/tenders/tender/19378515,https://flatinfo.ru/h_info1.asp?hid=242858
#ГП16939422,Продажа,Квартира,77:17:0120303:3228,Новомосковский,СП Сосенское,"г. Москва, п. Коммунарка, ул. Фитаревская, д. 17, к. 1",10.0,2,2,25.0,0.0,45.4,9592000,211277.53,479600,95920,Открытый аукцион в электронной форме,2023-10-24,2023-11-27,2023-12-04,2023-12-07,2023-12-07,78,13,4,14,24,5,55.566869999999994,37.47858,Железобетонные,Смешанный тип,Из прочих материалов,Нет данных,-1.0,2013.0,-1.0,3.0,Исправный,Коммунарка,1.0,15.0,7.70170000020007e+16,Нет данных,0.0,0.0,Нет данных,Нет данных,https://www.roseltorg.ru/procedure/21000005000000016302,https://torgi.gov.ru/new/public/notices/view/21000005000000016302,https://investmoscow.ru/tenders/tender/19376797,https://flatinfo.ru/h_info1.asp?hid=242858
#ГП16939465,Продажа,Квартира,77:17:0120303:3221,Новомосковский,СП Сосенское,"г. Москва, п. Коммунарка, ул. Фитаревская, д. 17, к. 1",7.0,2,1,25.0,0.0,46.5,8251000,177440.86,412550,82510,Открытый аукцион в электронной форме,2023-10-27,2023-11-27,2023-12-04,2023-12-07,2023-12-07,78,13,4,14,24,5,55.566869999999994,37.47858,Железобетонные,Смешанный тип,Из прочих материалов,Нет данных,-1.0,2013.0,-1.0,3.0,Исправный,Коммунарка,1.0,15.0,7.70170000020007e+16,Нет данных,0.0,0.0,Нет данных,Нет данных,https://www.roseltorg.ru/procedure/21000005000000016385,https://torgi.gov.ru/new/public/notices/view/21000005000000016385,https://investmoscow.ru/tenders/tender/19378871,https://flatinfo.ru/h_info1.asp?hid=242858
