lot_tag,auct_type,object_type,cadastr_num,adm_area,mun_district,addr_norm,flat_num,qty_rooms,addr_floor,total_floors,is_total_floors_variable,obj_square,start_price,start_price_m2,deposit,auct_step,auct_form,start_applications_date,finish_application_date,participant_selection_date,bidding_date,results_date,inf_sales,inf_food_service,inf_education,inf_cult_and_sport,inf_consumer_services,inf_health_care,geo_lat,geo_lon,overlap_material,skeleton,wall_material,category,residents_qty,construction_year,ceiling_height,passenger_elevators_qty,condition,gkh_metro_station,metro_km,metro_min,code_KLADR,global_repair_date,is_renov,renov_period,documentation_expl,documentation_photo,roseltorg_url,torgi_url,investmoscow_url,building_page_url
#ГП16939405,Продажа,Квартира,77:07:0015007:2828,Западный,Солнцево,"г. Москва, ул. Авиаторов, д. 11, к. 1",1107.0,2,11,12.0,0.0,39.7,5597000,140982.37,279850,55970,Открытый аукцион в электронной форме,2023-10-26,2023-11-27,2023-12-04,2023-12-07,2023-12-07,6,2,3,11,5,3,55.63918,37.40898,железобетонные,Панельный,Крупнопанельные,федеральный,-1.0,1984.0,258.0,2.0,Исправный,Солнцево,1.65,25.0,7.70000000000711e+16,Нет данных,0.0,Не включен в программу,Нет данных,Нет данных,https://www.roseltorg.ru/procedure/21000005000000016363,https://torgi.gov.ru/new/public/notices/view/21000005000000016363,https://investmoscow.ru/tenders/tender/19374915,https://flatinfo.ru/h_info1.asp?hid=8883
#ГП16940036,Продажа,Квартира,77:07:0015007:2667,Западный,Солнцево,"г. Москва, ул. Авиаторов, д. 11, к. 1",112.0,2,1,12.0,0.0,39.3,5103000,129847.33,255150,51030,Открытый аукцион в электронной форме,2023-11-14,2023-12-15,2023-12-21,2023-12-25,2023-12-25,6,2,3,11,5,3,55.63918,37.40898,железобетонные,Панельный,Крупнопанельные,федеральный,-1.0,1984.0,258.0,2.0,Исправный,Солнцево,1.65,25.0,7.70000000000711e+16,Нет данных,0.0,Не включен в программу,Нет данных,Нет данных,https://www.roseltorg.ru/procedure/21000005000000016813,https://torgi.gov.ru/new/public/notices/view/21000005000000016813,https://investmoscow.ru/tenders/tender/19394250,https://flatinfo.ru/h_info1.asp?hid=8883
#ГП16940470,Продажа,Квартира,77:07:0015007:2666,Западный,Солнцево,"г. Москва, ул. Авиаторов, д. 11, к. 1",111.0,1,1,12.0,0.0,19.3,3047000,157875.65,152350,30470,Открытый аукцион в электронной форме,2023-11-15,2023-12-18,2023-12-25,2023-12-27,2023-12-27,7,2,3,11,5,3,55.63918,37.40898,железобетонные,Панельный,Крупнопанельные,федеральный,-1.0,1984.0,258.0,2.0,Исправный,Солнцево,1.65,25.0,7.70000000000711e+16,Нет данных,0.0,Не включен в программу,Нет данных,Нет данных,https://www.roseltorg.ru/procedure/21000005000000016856,https://torgi.gov.ru/new/public/notices/view/21000005000000016856,https://investmoscow.ru/tenders/tender/19408730,https://flatinfo.ru/h_info1.asp?hid=8883
#ГП16940454,Продажа,Квартира,77:07:0015007:2850,Западный,Солнцево,"г. Москва, ул. Авиаторов, д. 11, к. 1",1212.0,1,12,12.0,0.0,19.3,2907000,150621.76,145350,29070,Открытый аукцион в электронной форме,2023-11-15,2023-12-18,2023-12-25,2023-12-27,2023-12-27,6,2,3,11,5,3,55.63918,37.40898,железобетонные,Панельный,Крупнопанельные,федеральный,-1.0,1984.0,258.0,2.0,Исправный,Солнцево,1.65,25.0,7.70000000000711e+16,Нет данных,0.0,Не включен в программу,Нет данных,Нет данных,https://www.roseltorg.ru/procedure/21000005000000016867,https://torgi.gov.ru/new/public/notices/view/21000005000000016867,https://investmoscow.ru/tenders/tender/19406664,https://flatinfo.ru/h_info1.asp?hid=8883
#ГП16940457,Продажа,Квартира,77:07:0015007:2814,Западный,Солнцево,"г. Москва, ул. Авиаторов, д. 11, к. 1",1009.0,2,10,12.0,0.0,40.3,5670000,140694.79,283500,56700,Открытый аукцион в электронной форме,2023-11-15,2023-12-18,2023-12-25,2023-12-27,2023-12-27,6,2,3,11,5,3,55.63918,37.40898,железобетонные,Панельный,Крупнопанельные,федеральный,-1.0,1984.0,258.0,2.0,Исправный,Солнцево,1.65,25.0,7.70000000000711e+16,Нет данных,0.0,Не включен в программу,Нет данных,Нет данных,https://www.roseltorg.ru/procedure/21000005000000016864,https://torgi.gov.ru/new/public/notices/view/21000005000000016864,https://investmoscow.ru/tenders/tender/19407829,https://flatinfo.ru/h_info1.asp?hid=8883
#ГП16940455,Продажа,Квартира,77:07:0015007:2846,Западный,Солнцево,"г. Москва, ул. Авиаторов, д. 11, к. 1",1208.0,2,12,12.0,0.0,39.3,5435000,138295.17,271750,54350,Открытый аукцион в электронной форме,2023-11-15,2023-12-18,2023-12-25,2023-12-27,2023-12-27,6,2,3,11,5,3,55.63918,37.40898,железобетонные,Панельный,Крупнопанельные,федеральный,-1.0,1984.0,258.0,2.0,Исправный,Солнцево,1.65,25.0,7.70000000000711e+16,Нет данных,0.0,Не включен в программу,Нет данных,Нет данных,https://www.roseltorg.ru/procedure/21000005000000016866,https://torgi.gov.ru/new/public/notices/view/21000005000000016866,https://investmoscow.ru/tenders/tender/19406930,https://flatinfo.ru/h_info1.asp?hid=8883
#ГП16940459,Продажа,Квартира,77:07:0015007:2808,Западный,Солнцево,"г. Москва, ул. Авиаторов, д. 11, к. 1",1003.0,2,10,12.0,0.0,39.8,5611000,140979.9,280550,56110,Открытый аукцион в электронной форме,2023-11-15,2023-12-18,2023-12-25,2023-12-27,2023-12-27,7,2,3,11,5,3,55.63918,37.40898,железобетонные,Панельный,Крупнопанельные,федеральный,-1.0,1984.0,258.0,2.0,Исправный,Солнцево,1.65,25.0,7.70000000000711e+16,Нет данных,0.0,Не включен в программу,Нет данных,Нет данных,https://www.roseltorg.ru/procedure/21000005000000016858,https://torgi.gov.ru/new/public/notices/view/21000005000000016858,https://investmoscow.ru/tenders/tender/19408329,https://flatinfo.ru/h_info1.asp?hid=8883
#ГП16940458,Продажа,Квартира,77:07:0015007:2845,Западный,Солнцево,"г. Москва, ул. Авиаторов, д. 11, к. 1",1207.0,2,12,12.0,0.0,40.2,5543000,137885.57,277150,55430,Открытый аукцион в электронной форме,2023-11-15,2023-12-18,2023-12-25,2023-12-27,2023-12-27,6,2,3,11,5,3,55.63918,37.40898,железобетонные,Панельный,Крупнопанельные,федеральный,-1.0,1984.0,258.0,2.0,Исправный,Солнцево,1.65,25.0,7.70000000000711e+16,Нет данных,0.0,Не включен в программу,Нет данных,Нет данных,https://www.roseltorg.ru/procedure/21000005000000016862,https://torgi.gov.ru/new/public/notices/view/21000005000000016862,https://investmoscow.ru/tenders/tender/19408129,https://flatinfo.ru/h_info1.asp?hid=8883
#ГП16940456,Продажа,Квартира,77:07:0015007:2669,Западный,Солнцево,"г. Москва, ул. Авиаторов, д. 11, к. 1",114.0,2,1,12.0,0.0,39.5,5129000,129848.1,256450,51290,Открытый аукцион в электронной форме,2023-11-15,2023-12-18,2023-12-25,2023-12-27,2023-12-27,6,2,3,11,5,3,55.63918,37.40898,железобетонные,Панельный,Крупнопанельные,федеральный,-1.0,1984.0,258.0,2.0,Исправный,Солнцево,1.65,25.0,7.70000000000711e+16,Нет данных,0.0,Не включен в программу,Нет данных,Нет данных,https://www.roseltorg.ru/procedure/21000005000000016863,https://torgi.gov.ru/new/public/notices/view/21000005000000016863,https://investmoscow.ru/tenders/tender/19407210,https://flatinfo.ru/h_info1.asp?hid=8883
#ГП16939247,Продажа,Квартира,77:09:0001019:5647,Северный,Головинский,"г. Москва, проезд. Конаковский, д. 6, к. 1",78.0,2,10,12.0,0.0,38.0,10083000,265342.11,504150,100830,Открытый аукцион в электронной форме,2023-10-26,2023-11-28,2023-12-05,2023-12-07,2023-12-07,157,17,7,28,19,2,55.84663000000001,37.4823,Железобетонные,Блочный,Крупноблочные,ЖСК - жилищно-строительные кооперативы,-1.0,1966.0,250.0,2.0,Исправный,Водный Стадион,0.85,13.0,7.70000000001527e+16,Нет данных,0.0,Не включен в программу,Нет данных,Нет данных,https://www.roseltorg.ru/procedure/21000005000000016366,https://torgi.gov.ru/new/public/notices/view/21000005000000016366,https://investmoscow.ru/tenders/tender/19372688,https://flatinfo.ru/h_info1.asp?hid=50661
#ГП16939529,Продажа,Квартира,77:04:0001011:2052,Юго-Восточный,Лефортово,"г. Москва, проезд. Таможенный, д. 12",28.0,2,3,16.0,0.0,51.3,10252000,199844.05,512600,102520,Открытый аукцион в электронной форме,2023-10-27,2023-11-28,2023-12-05,2023-12-08,2023-12-08,31,10,9,4,6,3,55.75145,37.68346,Железобетонные,Панельный,Крупнопанельные,федеральный,676.0,1977.0,260.0,2.0,Исправный,Серп и Молот,0.4,6.0,7.70000000000322e+16,Нет данных,0.0,Не включен в программу,Нет данных,Нет данных,https://www.roseltorg.ru/procedure/21000005000000016383,https://torgi.gov.ru/new/public/notices/view/21000005000000016383,https://investmoscow.ru/tenders/tender/19381627,https://flatinfo.ru/h_info1.asp?hid=34466
#ГП16939528,Продажа,Квартира,77:04:0001011:2088,Юго-Восточный,Лефортово,"г. Москва, проезд. Таможенный, д. 12",64.0,2,5,16.0,0.0,36.4,7207000,197994.51,360350,72070,Открытый аукцион в электронной форме,2023-10-27,2023-11-28,2023-12-05,2023-12-08,2023-12-08,31,10,9,4,6,3,55.75145,37.68346,Железобетонные,Панельный,Крупнопанельные,федеральный,676.0,1977.0,260.0,2.0,Исправный,Серп и Молот,0.4,6.0,7.70000000000322e+16,Нет данных,0.0,Не включен в программу,Нет данных,Нет данных,https://www.roseltorg.ru/procedure/21000005000000016384,https://torgi.gov.ru/new/public/notices/view/21000005000000016384,https://investmoscow.ru/tenders/tender/19381451,https://flatinfo.ru/h_info1.asp?hid=34466
#ГП16939755,Продажа,Квартира,77:04:0001011:2104,Юго-Восточный,Лефортово,"г. Москва, проезд. Таможенный, д. 12",80.0,2,6,16.0,0.0,35.8,6720000,187709.5,336000,67200,Открытый аукцион в электронной форме,2023-10-30,2023-11-30,2023-12-07,2023-12-11,2023-12-11,31,10,9,4,6,3,55.75145,37.68346,Железобетонные,Панельный,Крупнопанельные,федеральный,676.0,1977.0,260.0,2.0,Исправный,Серп и Молот,0.4,6.0,7.70000000000322e+16,Нет данных,0.0,Не включен в программу,Нет данных,Нет данных,https://www.roseltorg.ru/procedure/21000005000000016474,https://torgi.gov.ru/new/public/notices/view/21000005000000016474,https://investmoscow.ru/tenders/tender/19388263,https://flatinfo.ru/h_info1.asp?hid=34466
#ГП16939754,Продажа,Квартира,77:04:0001011:2138,Юго-Восточный,Лефортово,"г. Москва, проезд. Таможенный, д. 12",114.0,3,8,16.0,0.0,36.6,7239000,197786.89,361950,72390,Открытый аукцион в электронной форме,2023-10-30,2023-11-30,2023-12-07,2023-12-11,2023-12-11,31,10,9,4,6,3,55.75145,37.68346,Железобетонные,Панельный,Крупнопанельные,федеральный,676.0,1977.0,260.0,2.0,Исправный,Серп и Молот,0.4,6.0,7.70000000000322e+16,Нет данных,0.0,Не включен в программу,Нет данных,Нет данных,https://www.roseltorg.ru/procedure/21000005000000016475,https://torgi.gov.ru/new/public/notices/view/21000005000000016475,https://investmoscow.ru/tenders/tender/19388242,https://flatinfo.ru/h_info1.asp?hid=34466
#ГП16939533,Продажа,Квартира,77:04:0001011:2060,Юго-Восточный,Лефортово,"г. Москва, проезд. Таможенный, д. 12",36.0,3,4,16.0,0.0,35.4,6388000,180451.98,319400,63880,Открытый аукцион в электронной форме,2023-10-30,2023-11-30,2023-12-07,2023-12-11,2023-12-11,31,10,9,4,6,3,55.75145,37.68346,Железобетонные,Панельный,Крупнопанельные,федеральный,676.0,1977.0,260.0,2.0,Исправный,Серп и Молот,0.4,6.0,7.70000000000322e+16,Нет данных,0.0,Не включен в программу,Нет данных,Нет данных,https://www.roseltorg.ru/procedure/21000005000000016477,https://torgi.gov.ru/new/public/notices/view/21000005000000016477,https://investmoscow.ru/tenders/tender/19383124,https://flatinfo.ru/h_info1.asp?hid=34466
#ГП16939530,Продажа,Квартира,77:04:0001011:3673,Юго-Восточный,Лефортово,"г. Москва, проезд. Таможенный, д. 12",78.0,1,6,16.0,0.0,22.7,4656000,205110.13,232800,46560,Открытый аукцион в электронной форме,2023-10-30,2023-11-30,2023-12-07,2023-12-11,2023-12-11,31,10,9,4,6,3,55.75145,37.68346,Железобетонные,Панельный,Крупнопанельные,федеральный,676.0,1977.0,260.0,2.0,Исправный,Серп и Молот,0.4,6.0,7.70000000000322e+16,Нет данных,0.0,Не включен в программу,Нет данных,Нет данных,https://www.roseltorg.ru/procedure/21000005000000016481,https://torgi.gov.ru/new/public/notices/view/21000005000000016481,https://investmoscow.ru/tenders/tender/19381895,https://flatinfo.ru/h_info1.asp?hid=34466
#ГП16939531,Продажа,Квартира,77:04:0001011:2043,Юго-Восточный,Лефортово,"г. Москва, проезд. Таможенный, д. 12",21.0,1,3,16.0,0.0,19.8,3870000,195454.55,193500,38700,Открытый аукцион в электронной форме,2023-10-30,2023-11-30,2023-12-07,2023-12-11,2023-12-11,31,10,9,4,6,3,55.75145,37.68346,Железобетонные,Панельный,Крупнопанельные,федеральный,676.0,1977.0,260.0,2.0,Исправный,Серп и Молот,0.4,6.0,7.70000000000322e+16,Нет данных,0.0,Не включен в программу,Нет данных,Нет данных,https://www.roseltorg.ru/procedure/21000005000000016478,https://torgi.gov.ru/new/public/notices/view/21000005000000016478,https://investmoscow.ru/tenders/tender/19382417,https://flatinfo.ru/h_info1.asp?hid=34466
#ГП16939753,Продажа,Квартира,77:04:0001011:2068,Юго-Восточный,Лефортово,"г. Москва, проезд. Таможенный, д. 12",44.0,1,4,16.0,0.0,19.6,3838000,195816.33,191900,38380,Открытый аукцион в электронной форме,2023-10-30,2023-11-30,2023-12-07,2023-12-11,2023-12-11,31,10,9,4,6,3,55.75145,37.68346,Железобетонные,Панельный,Крупнопанельные,федеральный,676.0,1977.0,260.0,2.0,Исправный,Серп и Молот,0.4,6.0,7.70000000000322e+16,Нет данных,0.0,Не включен в программу,Нет данных,Нет данных,https://www.roseltorg.ru/procedure/21000005000000016476,https://torgi.gov.ru/new/public/notices/view/21000005000000016476,https://investmoscow.ru/tenders/tender/19388112,https://flatinfo.ru/h_info1.asp?hid=34466
#ГП16940453,Продажа,Квартира,77:04:0001011:2072,Юго-Восточный,Лефортово,"г. Москва, проезд. Таможенный, д. 12",48.0,1,4,16.0,0.0,18.2,4073000,223791.21,203650,40730,Открытый аукцион в электронной форме,2023-11-15,2023-12-18,2023-12-25,2023-12-27,2023-12-27,31,10,9,4,6,3,55.75145,37.68346,Железобетонные,Панельный,Крупнопанельные,федеральный,676.0,1977.0,260.0,2.0,Исправный,Серп и Молот,0.4,6.0,7.70000000000322e+16,Нет данных,0.0,Не включен в программу,Нет данных,Нет данных,https://www.roseltorg.ru/procedure/21000005000000016855,https://torgi.gov.ru/new/public/notices/view/21000005000000016855,https://investmoscow.ru/tenders/tender/19406638,https://flatinfo.ru/h_info1.asp?hid=34466
#ГП16939252,Продажа,Квартира,77:09:0001008:15745,Северный,Ховрино,"г. Москва, ул. Дыбенко, д. 2, к. 1",18.0,2,5,17.0,0.0,53.6,13595000,253638.06,679750,135950,Открытый аукцион в электронной форме,2023-10-26,2023-11-28,2023-12-05,2023-12-07,2023-12-07,111,20,4,25,60,3,55.86883,37.48802,Железобетонные,Панельный,Крупнопанельные,муниципальный,488.0,2002.0,264.0,1.0,Исправный,Беломорская,0.9,14.0,7.70000000001254e+16,Нет данных,0.0,Не включен в программу,Нет данных,Нет данных,https://www.roseltorg.ru/procedure/21000005000000016367,https://torgi.gov.ru/new/public/notices/view/21000005000000016367,https://investmoscow.ru/tenders/tender/19372873,https://flatinfo.ru/h_info1.asp?hid=77784
#ГП16939250,Продажа,Квартира,77:06:0006005:1426,Юго-Западный,Коньково,"г. Москва, ул. Академика Арцимовича, д. 4",61.0,1,4,12.0,0.0,31.9,8975000,281347.96,448750,89750,Открытый аукцион в электронной форме,2023-10-26,2023-11-28,2023-12-05,2023-12-07,2023-12-07,-1,-1,-1,-1,-1,-1,55.644709999999996,37.51393,Железобетонные,Панельный,Крупнопанельные,ЖСК - жилищно-строительные кооперативы,-1.0,1973.0,264.0,1.0,Исправный,Беляево,0.85,13.0,7.70000000000771e+16,Нет данных,0.0,Не включен в программу,Нет данных,Нет данных,https://www.roseltorg.ru/procedure/21000005000000016358,https://torgi.gov.ru/new/public/notices/view/21000005000000016358,https://investmoscow.ru/tenders/tender/19372026,https://flatinfo.ru/h_info1.asp?hid=9730
#ГП16939532,Продажа,Квартира,77:04:0003018:1704,Юго-Восточный,Печатники,"г. Москва, ул. Полбина, д. 23, к. 2",67.0,2,6,12.0,0.0,38.1,6837000,179448.82,341850,68370,Открытый аукцион в электронной форме,2023-10-30,2023-11-30,2023-12-07,2023-12-11,2023-12-11,60,4,5,9,5,4,55.676109999999994,37.727270000000004,железобетонные,Блочный,Крупноблочные,федеральный,486.0,1981.0,258.0,2.0,Исправный,Депо,0.3,5.0,7.70000000000207e+16,Нет данных,0.0,Не включен в программу,Нет данных,Нет данных,https://www.roseltorg.ru/procedure/21000005000000016479,https://torgi.gov.ru/new/public/notices/view/21000005000000016479,https://investmoscow.ru/tenders/tender/19382619,https://flatinfo.ru/h_info1.asp?hid=15093
#ГП16940471,Продажа,Квартира,77:04:0003018:1655,Юго-Восточный,Печатники,"г. Москва, ул. Полбина, д. 23, к. 2",18.0,2,2,12.0,0.0,38.9,6591000,169434.45,329550,65910,Открытый аукцион в электронной форме,2023-11-15,2023-12-18,2023-12-25,2023-12-27,2023-12-27,60,4,5,9,5,4,55.676109999999994,37.727270000000004,железобетонные,Блочный,Крупноблочные,федеральный,486.0,1981.0,258.0,2.0,Исправный,Депо,0.3,5.0,7.70000000000207e+16,Нет данных,0.0,Не включен в программу,Нет данных,Нет данных,https://www.roseltorg.ru/procedure/21000005000000016860,https://torgi.gov.ru/new/public/notices/view/21000005000000016860,https://investmoscow.ru/tenders/tender/19408826,https://flatinfo.ru/h_info1.asp?hid=15093
#ГП16939027,Продажа,Квартира,77:02:0013009:1643,Северо-Восточный,Ярославский,"г. Москва, ш. Ярославское, д. 116, к. 1",611.0,2,6,16.0,0.0,38.7,4945000,127777.78,247250,49450,Открытый аукцион в электронной форме,2023-10-23,2023-11-30,2023-12-07,2023-12-11,2023-12-11,69,12,7,18,29,-1,55.86702,37.70874,Железобетонные,Блочный,Крупноблочные,муниципальный,514.0,1980.0,258.0,4.0,Исправный,Бабушкинская,2.9,44.0,7.70000000003221e+16,Нет данных,0.0,Не включен в программу,Нет данных,Нет данных,https://www.roseltorg.ru/procedure/21000005000000016267,https://torgi.gov.ru/new/public/notices/view/21000005000000016267,https://investmoscow.ru/tenders/tender/19361193,https://flatinfo.ru/h_info1.asp?hid=58394
#ГП16939887,Продажа,Квартира,77:02:0013009:1623,Северо-Восточный,Ярославский,"г. Москва, ш. Ярославское, д. 116, к. 1",509.0,2,5,16.0,0.0,39.1,5989000,153171.36,299450,59890,Открытый аукцион в электронной форме,2023-11-03,2023-12-04,2023-12-06,2023-12-08,2023-12-08,69,12,7,18,29,-1,55.86702,37.70874,Железобетонные,Блочный,Крупноблочные,муниципальный,514.0,1980.0,258.0,4.0,Исправный,Бабушкинская,2.9,44.0,7.70000000003221e+16,Нет данных,0.0,Не включен в программу,Нет данных,Нет данных,https://www.roseltorg.ru/procedure/21000005000000016608,https://torgi.gov.ru/new/public/notices/view/21000005000000016608,https://investmoscow.ru/tenders/tender/19389918,https://flatinfo.ru/h_info1.asp?hid=58394
#ГП16939883,Продажа,Квартира,77:02:0013009:1776,Северо-Восточный,Ярославский,"г. Москва, ш. Ярославское, д. 116, к. 1",1404.0,2,14,16.0,0.0,38.7,6264000,161860.47,313200,62640,Открытый аукцион в электронной форме,2023-11-03,2023-12-04,2023-12-06,2023-12-08,2023-12-08,69,12,7,18,29,-1,55.86702,37.70874,Железобетонные,Блочный,Крупноблочные,муниципальный,514.0,1980.0,258.0,4.0,Исправный,Бабушкинская,2.9,44.0,7.70000000003221e+16,Нет данных,0.0,Не включен в программу,Нет данных,Нет данных,https://www.roseltorg.ru/procedure/21000005000000016611,https://torgi.gov.ru/new/public/notices/view/21000005000000016611,https://investmoscow.ru/tenders/tender/19389911,https://flatinfo.ru/h_info1.asp?hid=58394
#ГП16939870,Продажа,Квартира,77:02:0013009:3399,Северо-Восточный,Ярославский,"г. Москва, ш. Ярославское, д. 116, к. 1",505.0,2,5,16.0,0.0,39.1,5989000,153171.36,299450,59890,Открытый аукцион в электронной форме,2023-11-03,2023-12-04,2023-12-06,2023-12-08,2023-12-08,69,12,7,18,29,-1,55.86702,37.70874,Железобетонные,Блочный,Крупноблочные,муниципальный,514.0,1980.0,258.0,4.0,Исправный,Бабушкинская,2.9,44.0,7.70000000003221e+16,Нет данных,0.0,Не включен в программу,Нет данных,Нет данных,https://www.roseltorg.ru/procedure/21000005000000016616,https://torgi.gov.ru/new/public/notices/view/21000005000000016616,https://investmoscow.ru/tenders/tender/19389885,https://flatinfo.ru/h_info1.asp?hid=58394
#ГП16939843,Продажа,Квартира,77:06:0012020:11207,Юго-Западный,Бутово Южное,"г. Москва, ул. Брусилова, д. 7",4.0,2,2,14.0,0.0,55.9,7841000,140268.34,392050,78410,Открытый аукцион в электронной форме,2023-11-01,2023-12-01,2023-12-08,2023-12-12,2023-12-12,57,6,2,15,25,4,55.5007,37.575990000000004,железобетонные,Панельный,Крупнопанельные,муниципальный,402.0,2009.0,264.0,1.0,Исправный,Щербинка,1.35,20.0,7.70000000007391e+16,Нет данных,0.0,Не включен в программу,Нет данных,Нет данных,https://www.roseltorg.ru/procedure/21000005000000016527,https://torgi.gov.ru/new/public/notices/view/21000005000000016527,https://investmoscow.ru/tenders/tender/19389239,https://flatinfo.ru/h_info1.asp?hid=115795
#ГП16939877,Продажа,Квартира,77:01:0001030:1789,Центральный,Басманный,"г. Москва, ул. Чаплыгина, д. 8, стр. 1",13.0,6,1,5.0,0.0,111.2,29685000,266951.44,1484250,296850,Открытый аукцион в электронной форме,2023-11-03,2023-12-04,2023-12-06,2023-12-08,2023-12-08,163,60,37,35,28,8,55.76355,37.64653,деревянные,Кирпичный,Кирпичные,муниципальный,87.0,1898.0,320.0,-1.0,Исправный,Чистые Пруды,0.55,9.0,7.70000000003076e+16,Нет данных,0.0,Не включен в программу,Нет данных,Нет данных,https://www.roseltorg.ru/procedure/21000005000000016615,https://torgi.gov.ru/new/public/notices/view/21000005000000016615,https://investmoscow.ru/tenders/tender/19389859,https://flatinfo.ru/h_info1.asp?hid=33683
#ГП16939888,Продажа,Квартира,77:10:0002007:1730,Зеленоградский,Старое Крюково,"г. Москва, г. Зеленоград, к. 802",147.0,2,1,9.0,0.0,42.7,6355000,148829.04,317750,63550,Открытый аукцион в электронной форме,2023-11-03,2023-12-04,2023-12-06,2023-12-08,2023-12-08,19,3,4,24,5,2,55.97904000000001,37.19251,железобетонные,Панельный,Крупнопанельные,муниципальный,1072.0,1973.0,264.0,1.0,Исправный,Зеленоград,1.25,19.0,7700000200000.0,Нет данных,0.0,Не включен в программу,Нет данных,Нет данных,https://www.roseltorg.ru/procedure/21000005000000016607,https://torgi.gov.ru/new/public/notices/view/21000005000000016607,https://investmoscow.ru/tenders/tender/19389929,https://flatinfo.ru/h_info1.asp?hid=66785
#ГП16939868,Продажа,Квартира,77:10:0002006:5105,Зеленоградский,Старое Крюково,"г. Москва, г. Зеленоград, к. 848",197.0,2,12,19.0,0.0,62.4,8518000,136506.41,425900,85180,Открытый аукцион в электронной форме,2023-10-31,2023-12-04,2023-12-11,2023-12-14,2023-12-14,67,5,3,30,16,2,55.97722,37.18535,Железобетонные,Монолитный,Нет данных,Нет данных,-1.0,2013.0,-1.0,2.0,Исправный,Зеленоград,0.9,13.0,7700000200000.0,Нет данных,0.0,Не включен в программу,Нет данных,Нет данных,https://www.roseltorg.ru/procedure/21000005000000016487,https://torgi.gov.ru/new/public/notices/view/21000005000000016487,https://investmoscow.ru/tenders/tender/19390061,https://flatinfo.ru/h_info1.asp?hid=339447
#ГП16937852,Продажа,Квартира,77:10:0002006:5045,Зеленоградский,Старое Крюково,"г. Москва, г. Зеленоград, к. 848",204.0,2,13,19.0,0.0,62.5,10927000,174832.0,546350,109270,Открытый аукцион в электронной форме,2023-11-03,2023-12-04,2023-12-06,2023-12-08,2023-12-08,67,5,3,30,16,2,55.97722,37.18535,Железобетонные,Монолитный,Нет данных,Нет данных,-1.0,2013.0,-1.0,2.0,Исправный,Зеленоград,0.9,13.0,7700000200000.0,Нет данных,0.0,Не включен в программу,Нет данных,Нет данных,https://www.roseltorg.ru/procedure/21000005000000016624,https://torgi.gov.ru/new/public/notices/view/21000005000000016624,https://investmoscow.ru/tenders/tender/19388551,https://flatinfo.ru/h_info1.asp?hid=339447
#ГП16939992,Продажа,Квартира,77:10:0002006:4916,Зеленоградский,Старое Крюково,"г. Москва, г. Зеленоград, к. 848",56.0,2,9,19.0,0.0,59.5,8229000,138302.52,411450,82290,Открытый аукцион в электронной форме,2023-11-02,2023-12-04,2023-12-11,2023-12-14,2023-12-14,-1,-1,-1,-1,-1,-1,55.97722,37.18535,Железобетонные,Монолитный,Нет данных,Нет данных,-1.0,2013.0,-1.0,2.0,Исправный,Зеленоград,0.9,13.0,7700000200000.0,Нет данных,0.0,Не включен в программу,Нет данных,Нет данных,https://www.roseltorg.ru/procedure/21000005000000016563,https://torgi.gov.ru/new/public/notices/view/21000005000000016563,https://investmoscow.ru/tenders/tender/19393146,https://flatinfo.ru/h_info1.asp?hid=339447
#ГП16939961,Продажа,Квартира,77:10:0002006:5078,Зеленоградский,Старое Крюково,"г. Москва, г. Зеленоград, к. 848",2.0,2,2,19.0,0.0,56.2,7777000,138380.78,388850,77770,Открытый аукцион в электронной форме,2023-11-02,2023-12-04,2023-12-11,2023-12-14,2023-12-14,-1,-1,-1,-1,-1,-1,55.97722,37.18535,Железобетонные,Монолитный,Нет данных,Нет данных,-1.0,2013.0,-1.0,2.0,Исправный,Зеленоград,0.9,13.0,7700000200000.0,Нет данных,0.0,Не включен в программу,Нет данных,Нет данных,https://www.roseltorg.ru/procedure/21000005000000016565,https://torgi.gov.ru/new/public/notices/view/21000005000000016565,https://investmoscow.ru/tenders/tender/19393063,https://flatinfo.ru/h_info1.asp?hid=339447
#ГП16939844,Продажа,Квартира,77:10:0002006:5051,Зеленоградский,Старое Крюково,"г. Москва, г. Зеленоград, к. 848",208.0,3,13,19.0,0.0,72.5,9911000,136703.45,495550,99110,Открытый аукцион в электронной форме,2023-11-24,2024-01-15,2024-01-22,2024-01-25,2024-01-25,67,5,3,30,16,2,55.97722,37.18535,Железобетонные,Монолитный,Нет данных,Нет данных,-1.0,2013.0,-1.0,2.0,Исправный,Зеленоград,0.9,13.0,7700000200000.0,Нет данных,0.0,Не включен в программу,Нет данных,Нет данных,https://www.roseltorg.ru/procedure/21000005000000017021,https://torgi.gov.ru/new/public/notices/view/21000005000000017021,https://investmoscow.ru/tenders/tender/19390043,https://flatinfo.ru/h_info1.asp?hid=339447
#ГП16940044,Продажа,Квартира,77:08:0013005:1067,Северо-Западный,Строгино,"г. Москва, ул. Твардовского, д. 10, стр. 2",Нет данных,3,3,12.0,0.0,38.2,7336000,192041.88,366800,73360,Открытый аукцион в электронной форме,2023-11-14,2023-12-15,2023-12-21,2023-12-25,2023-12-25,19,8,10,11,12,6,55.79342,37.3962,Железобетонные,Панельный,Крупноблочные,федеральный,490.0,1986.0,258.0,2.0,Исправный,Строгино,1.25,19.0,7.70000000002875e+16,Нет данных,0.0,Не включен в программу,Нет данных,Нет данных,https://www.roseltorg.ru/procedure/21000005000000016812,https://torgi.gov.ru/new/public/notices/view/21000005000000016812,https://investmoscow.ru/tenders/tender/19394524,https://flatinfo.ru/h_info1.asp?hid=95358
#ГП16940032,Продажа,Квартира,77:02:0013009:1052,Северо-Восточный,Ярославский,"г. Москва, ш. Ярославское, д. 114, к. 1",301.0,1,3,16.0,0.0,37.6,5773000,153537.23,288650,57730,Открытый аукцион в электронной форме,2023-11-14,2023-12-15,2023-12-21,2023-12-25,2023-12-25,61,12,8,15,25,-1,55.86626999999999,37.70742,Железобетонные,Блочный,Крупноблочные,Нет данных,703.0,1980.0,258.0,6.0,Исправный,Бабушкинская,2.8,42.0,7.70000000003221e+16,Нет данных,0.0,Не включен в программу,Нет данных,Нет данных,https://www.roseltorg.ru/procedure/21000005000000016814,https://torgi.gov.ru/new/public/notices/view/21000005000000016814,https://investmoscow.ru/tenders/tender/19394326,https://flatinfo.ru/h_info1.asp?hid=58392
#ГП16940006,Продажа,Квартира,77:02:0013009:1486,Северо-Восточный,Ярославский,"г. Москва, ш. Ярославское, д. 114, к. 2",1413.0,2,14,16.0,0.0,39.0,4617000,118384.62,230850,46170,Открытый аукцион в электронной форме,2023-11-14,2023-12-15,2023-12-21,2023-12-25,2023-12-25,61,12,8,15,25,-1,55.86639,37.70847,Железобетонные,Блочный,Крупноблочные,муниципальный,665.0,1980.0,258.0,4.0,Исправный,Бабушкинская,2.85,43.0,7.70000000003221e+16,Нет данных,0.0,Не включен в программу,Нет данных,Нет данных,https://www.roseltorg.ru/procedure/21000005000000016816,https://torgi.gov.ru/new/public/notices/view/21000005000000016816,https://investmoscow.ru/tenders/tender/19393590,https://flatinfo.ru/h_info1.asp?hid=58393
#ГП16940010,Продажа,Квартира,77:02:0013009:1512,Северо-Восточный,Ярославский,"г. Москва, ш. Ярославское, д. 114, к. 2",912.0,3,9,16.0,0.0,38.6,4900000,126943.01,245000,49000,Открытый аукцион в электронной форме,2023-11-14,2023-12-15,2023-12-21,2023-12-25,2023-12-25,61,12,8,15,25,-1,55.86639,37.70847,Железобетонные,Блочный,Крупноблочные,муниципальный,665.0,1980.0,258.0,4.0,Исправный,Бабушкинская,2.85,43.0,7.70000000003221e+16,Нет данных,0.0,Не включен в программу,Нет данных,Нет данных,https://www.roseltorg.ru/procedure/21000005000000016815,https://torgi.gov.ru/new/public/notices/view/21000005000000016815,https://investmoscow.ru/tenders/tender/19393436,https://flatinfo.ru/h_info1.asp?hid=58393
#ГП16939996,Продажа,Квартира,77:02:0013009:1416,Северо-Восточный,Ярославский,"г. Москва, ш. Ярославское, д. 114, к. 2",1209.0,2,12,16.0,0.0,38.9,4605000,118380.46,230250,46050,Открытый аукцион в электронной форме,2023-11-14,2023-12-15,2023-12-21,2023-12-25,2023-12-25,61,12,8,15,25,-1,55.86639,37.70847,Железобетонные,Блочный,Крупноблочные,муниципальный,665.0,1980.0,258.0,4.0,Исправный,Бабушкинская,2.85,43.0,7.70000000003221e+16,Нет данных,0.0,Не включен в программу,Нет данных,Нет данных,https://www.roseltorg.ru/procedure/21000005000000016818,https://torgi.gov.ru/new/public/notices/view/21000005000000016818,https://investmoscow.ru/tenders/tender/19392858,https://flatinfo.ru/h_info1.asp?hid=58393
#ГП16939998,Продажа,Квартира,77:02:0013003:1748,Северо-Восточный,Ярославский,"г. Москва, ш. Ярославское, д. 135",1.0,1,1,9.0,0.0,19.0,2384000,125473.68,119200,23840,Открытый аукцион в электронной форме,2023-11-14,2023-12-15,2023-12-21,2023-12-25,2023-12-25,-1,-1,-1,-1,-1,-1,55.87879,37.71929,Железобетонные,Блочный,Крупноблочные,муниципальный,127.0,1966.0,250.0,1.0,Исправный,Бабушкинская,3.7,55.0,7.70000000003221e+16,Нет данных,0.0,Не включен в программу,Нет данных,Нет данных,https://www.roseltorg.ru/procedure/21000005000000016817,https://torgi.gov.ru/new/public/notices/view/21000005000000016817,https://investmoscow.ru/tenders/tender/19393039,https://flatinfo.ru/h_info1.asp?hid=58535
#ГП16940060,Продажа,Квартира,77:04:0001007:4722,Юго-Восточный,Лефортово,"г. Москва, ул. Волочаевская, д. 18",62.0,2,6,16.0,0.0,39.1,6373000,162992.33,318650,63730,Открытый аукцион в электронной форме,2023-11-14,2023-12-15,2023-12-21,2023-12-25,2023-12-25,41,13,10,10,11,4,55.754780000000004,37.67986,железобетонные,Блочный,Крупноблочные,Нет данных,567.0,1983.0,258.0,6.0,Исправный,Серп и Молот,0.8,12.0,7.70000000000264e+16,Нет данных,0.0,Не включен в программу,Нет данных,Нет данных,https://www.roseltorg.ru/procedure/21000005000000016819,https://torgi.gov.ru/new/public/notices/view/21000005000000016819,https://investmoscow.ru/tenders/tender/19399860,https://flatinfo.ru/h_info1.asp?hid=34507
#ГП16940130,Продажа,Квартира,77:06:0002007:1211,Юго-Западный,Академический,"г. Москва, ул. Дмитрия Ульянова, д. 9/11, к. 2",22.0,2,0,5.0,0.0,45.8,7861000,171637.55,393050,78610,Открытый аукцион в электронной форме,2023-11-14,2023-12-15,2023-12-21,2023-12-25,2023-12-25,82,36,10,22,26,-1,55.69068000000001,37.56783,железобетонные,Панельный,Крупноблочные,муниципальный,156.0,1959.0,258.0,-1.0,Исправный,Академическая,0.5,8.0,7.70000000002964e+16,Нет данных,0.0,Не включен в программу,Нет данных,Нет данных,https://www.roseltorg.ru/procedure/21000005000000016822,https://torgi.gov.ru/new/public/notices/view/21000005000000016822,https://investmoscow.ru/tenders/tender/19400873,https://flatinfo.ru/h_info1.asp?hid=71228
#ГП16940126,Продажа,Квартира,77:06:0002007:1215,Юго-Западный,Академический,"г. Москва, ул. Дмитрия Ульянова, д. 9/11, к. 2",46.0,1,0,5.0,0.0,28.6,5439000,190174.83,271950,54390,Открытый аукцион в электронной форме,2023-11-14,2023-12-15,2023-12-21,2023-12-25,2023-12-25,82,36,10,22,26,-1,55.69068000000001,37.56783,железобетонные,Панельный,Крупноблочные,муниципальный,156.0,1959.0,258.0,-1.0,Исправный,Академическая,0.5,8.0,7.70000000002964e+16,Нет данных,0.0,Не включен в программу,Нет данных,Нет данных,https://www.roseltorg.ru/procedure/21000005000000016827,https://torgi.gov.ru/new/public/notices/view/21000005000000016827,https://investmoscow.ru/tenders/tender/19400626,https://flatinfo.ru/h_info1.asp?hid=71228
#ГП16940465,Продажа,Квартира,77:07:0015007:2851,Западный,Солнцево,"г. Москва, ул. Авиаторов, д. 11, стр. 1",1213.0,2,12,12.0,0.0,39.5,5463000,138303.8,273150,54630,Открытый аукцион в электронной форме,2023-11-15,2023-12-18,2023-12-25,2023-12-27,2023-12-27,-1,-1,-1,-1,2,-1,55.63918,37.40898,железобетонные,Панельный,Крупнопанельные,федеральный,-1.0,1984.0,258.0,2.0,Исправный,Солнцево,1.65,25.0,7.70000000000711e+16,Нет данных,0.0,Не включен в программу,Нет данных,Нет данных,https://www.roseltorg.ru/procedure/21000005000000016857,https://torgi.gov.ru/new/public/notices/view/21000005000000016857,https://investmoscow.ru/tenders/tender/19408543,https://flatinfo.ru/h_info1.asp?hid=8883
#ГП16940966,Продажа,Квартира,77:09:0004008:2675,Северный,Аэропорт,"г. Москва, ул. Планетная, д. 27",46.0,3,2,5.0,0.0,53.1,10527000,198248.59,526350,105270,Открытый аукцион в электронной форме,2023-11-24,2024-01-15,2024-01-22,2024-01-25,2024-01-25,51,19,16,27,38,8,55.80204000000001,37.54548,Железобетонные,Кирпичный,Кирпичные,муниципальный,78.0,1962.0,248.0,-1.0,Исправный,Гражданская,0.7,10.0,7.70000000002291e+16,Нет данных,0.0,Не включен в программу,Нет данных,Нет данных,https://www.roseltorg.ru/procedure/21000005000000017019,https://torgi.gov.ru/new/public/notices/view/21000005000000017019,https://investmoscow.ru/tenders/tender/19424491,https://flatinfo.ru/h_info1.asp?hid=42880
#ГП16940969,Продажа,Квартира,77:02:0008001:7883,Северо-Восточный,Отрадное,"г. Москва, б-р. Северный, д. 19Б",38.0,1,1,9.0,0.0,32.5,6395000,196769.23,319750,63950,Открытый аукцион в электронной форме,2023-11-24,2024-01-15,2024-01-22,2024-01-25,2024-01-25,27,4,4,31,10,-1,55.871219999999994,37.61546,Железобетонные,Панельный,Крупнопанельные,муниципальный,380.0,1974.0,264.0,1.0,Исправный,Отрадное,1.15,17.0,7.70000000002593e+16,Нет данных,0.0,Не включен в программу,Нет данных,Нет данных,https://www.roseltorg.ru/procedure/21000005000000017016,https://torgi.gov.ru/new/public/notices/view/21000005000000017016,https://investmoscow.ru/tenders/tender/19424870,https://flatinfo.ru/h_info1.asp?hid=57485
#ГП16940967,Продажа,Квартира,77:05:0011004:10483,Южный,Орехово-Борисово Северное,"г. Москва, ул. Шипиловская, д. 25, к. 1",435.0,2,1,12.0,0.0,49.2,6927000,140792.68,346350,69270,Открытый аукцион в электронной форме,2023-11-24,2024-01-15,2024-01-22,2024-01-25,2024-01-25,185,41,10,33,41,5,55.62141,37.72319,Железобетонные,Панельный,Крупнопанельные,муниципальный,2463.0,1974.0,264.0,1.0,Исправный,Домодедовская,1.2,18.0,7.70000000000529e+16,Нет данных,0.0,Не включен в программу,Нет данных,Нет данных,https://www.roseltorg.ru/procedure/21000005000000017018,https://torgi.gov.ru/new/public/notices/view/21000005000000017018,https://investmoscow.ru/tenders/tender/19424662,https://flatinfo.ru/h_info1.asp?hid=6916
#ГП16939258,Продажа,Квартира,77:02:0004001:4277,Северо-Восточный,Медведково Северное,"г. Москва, ул. Широкая, д. 1, к. 4",1003.0,1,2,9.0,0.0,32.8,8341000,254298.78,417050,83410,Открытый аукцион в электронной форме,2023-10-26,2024-01-16,2024-01-23,2024-01-25,2024-01-25,-1,-1,-1,-1,-1,-1,55.88899,37.65015,Железобетонные,Панельный,Крупнопанельные,ЖСК - жилищно-строительные кооперативы,515.0,1974.0,264.0,1.0,Исправный,Медведково,0.75,11.0,7.70000000003148e+16,Нет данных,0.0,Не включен в программу,Нет данных,Нет данных,https://www.roseltorg.ru/procedure/21000005000000016343,https://torgi.gov.ru/new/public/notices/view/21000005000000016343,https://investmoscow.ru/tenders/tender/19373997,https://flatinfo.ru/h_info1.asp?hid=61089
#ГП16940626,Продажа,Квартира,77:02:0006001:4431,Северо-Восточный,Медведково Южное,"г. Москва, проезд. Ясный, д. 19",158.0,2,10,12.0,0.0,38.6,6822000,176735.75,341100,68220,Открытый аукцион в электронной форме,2023-11-22,2024-01-16,2024-01-23,2024-01-26,2024-01-26,17,2,4,16,9,1,55.87596,37.61843,Железобетонные,Блочный,Крупноблочные,Нет данных,299.0,1979.0,258.0,4.0,Исправный,Бибирево,1.35,20.0,7.70000000003224e+16,Нет данных,0.0,Не включен в программу,Нет данных,Нет данных,https://www.roseltorg.ru/procedure/21000005000000016975,https://torgi.gov.ru/new/public/notices/view/21000005000000016975,https://investmoscow.ru/tenders/tender/19414604,https://flatinfo.ru/h_info1.asp?hid=57501
#ГП16939261,Продажа,Квартира,77:07:0014008:12028,Западный,Тропарево-Никулино,"г. Москва, пр-кт. Вернадского, д. 89, к. 2",124.0,3,4,9.0,0.0,49.3,11626000,235821.5,581300,116260,Открытый аукцион в электронной форме,2023-10-26,2024-01-16,2024-01-23,2024-01-25,2024-01-25,14,3,5,11,9,3,55.66563000000001,37.49859,железобетонные,Панельный,Крупнопанельные,муниципальный,364.0,1969.0,264.0,1.0,Исправный,Юго-Западная,1.05,16.0,7.70000000000953e+16,Нет данных,0.0,Не включен в программу,Нет данных,Нет данных,https://www.roseltorg.ru/procedure/21000005000000016341,https://torgi.gov.ru/new/public/notices/view/21000005000000016341,https://investmoscow.ru/tenders/tender/19374548,https://flatinfo.ru/h_info1.asp?hid=9646
#ГП16940628,Продажа,Квартира,77:05:0001001:1726,Южный,Даниловский,"г. Москва, ул. Дербеневская, д. 18",17.0,2,3,5.0,0.0,52.4,9558000,182404.58,477900,95580,Открытый аукцион в электронной форме,2023-11-22,2024-01-16,2024-01-23,2024-01-26,2024-01-26,45,33,28,8,14,2,55.72226,37.647420000000004,Деревянные,Кирпичный,Кирпичные,муниципальный,182.0,1900.0,300.0,0.0,Исправный,Павелецкая,1.15,17.0,7.70000000001183e+16,Нет данных,0.0,Не включен в программу,Нет данных,Нет данных,https://www.roseltorg.ru/procedure/21000005000000016974,https://torgi.gov.ru/new/public/notices/view/21000005000000016974,https://investmoscow.ru/tenders/tender/19414866,https://flatinfo.ru/h_info1.asp?hid=21849
#ГП16940641,Продажа,Квартира,77:05:0001001:1754,Южный,Даниловский,"г. Москва, ул. Дербеневская, д. 18",62.0,4,5,5.0,0.0,73.9,12987000,175737.48,649350,129870,Открытый аукцион в электронной форме,2023-11-22,2024-01-16,2024-01-23,2024-01-26,2024-01-26,45,33,28,8,14,2,55.72226,37.647420000000004,Деревянные,Кирпичный,Кирпичные,муниципальный,182.0,1900.0,300.0,0.0,Исправный,Павелецкая,1.15,17.0,7.70000000001183e+16,Нет данных,0.0,Не включен в программу,Нет данных,Нет данных,https://www.roseltorg.ru/procedure/21000005000000016973,https://torgi.gov.ru/new/public/notices/view/21000005000000016973,https://investmoscow.ru/tenders/tender/19415329,https://flatinfo.ru/h_info1.asp?hid=21849
#ГП16939259,Продажа,Квартира,77:09:0002007:2363,Северный,Дегунино Восточное,"г. Москва, проезд. Керамический, д. 71, к. 1",5.0,2,2,12.0,0.0,50.1,10118000,201956.09,505900,101180,Открытый аукцион в электронной форме,2023-10-26,2024-01-16,2024-01-23,2024-01-25,2024-01-25,38,7,7,12,9,5,55.890159999999995,37.5629,Железобетонные,Панельный,Крупнопанельные,муниципальный,1098.0,1979.0,264.0,2.0,Исправный,Бескудниково,0.95,14.0,7.70000000001461e+16,Нет данных,0.0,Не включен в программу,Нет данных,Нет данных,https://www.roseltorg.ru/procedure/21000005000000016342,https://torgi.gov.ru/new/public/notices/view/21000005000000016342,https://investmoscow.ru/tenders/tender/19374257,https://flatinfo.ru/h_info1.asp?hid=60318
#ГП16940868,Продажа,Квартира,77:05:0001006:3319,Южный,Даниловский,"г. Москва, ул. Мытная, д. 54",39.0,3,4,7.0,0.0,64.7,15703000,242704.79,785150,157030,Открытый аукцион в электронной форме,2023-11-23,2024-01-18,2024-01-25,2024-01-29,2024-01-29,93,50,17,25,55,6,55.716359999999995,37.6192,Деревянные,Кирпичный,Кирпичные,муниципальный,268.0,1927.0,300.0,1.0,Исправный,Шаболовская,0.75,12.0,7.70000000001928e+16,Нет данных,0.0,Не включен в программу,Нет данных,Нет данных,https://www.roseltorg.ru/procedure/21000005000000016978,https://torgi.gov.ru/new/public/notices/view/21000005000000016978,https://investmoscow.ru/tenders/tender/19420639,https://flatinfo.ru/h_info1.asp?hid=20857
#ГП16940840,Продажа,Квартира,77:16:0010105:8842,Юго-Восточный,Некрасовка,"г. Москва, ул. Рождественская, д. 31",269.0,5,19,19.0,0.0,129.4,15426000,119211.75,771300,154260,Открытый аукцион в электронной форме,2023-11-21,2024-01-18,2024-01-25,2024-01-29,2024-01-29,91,13,5,18,41,1,55.70654,37.93097,Железобетонные,Панельный,Железобетонные,Нет данных,-1.0,2014.0,278.0,2.0,Исправный,Некрасовка,0.45,7.0,7.70000000007452e+16,Нет данных,0.0,Не включен в программу,Нет данных,Нет данных,https://www.roseltorg.ru/procedure/21000005000000016936,https://torgi.gov.ru/new/public/notices/view/21000005000000016936,https://investmoscow.ru/tenders/tender/19419714,https://flatinfo.ru/h_info1.asp?hid=260843
#ГП16939429,Продажа,Квартира,77:02:0004001:2837,Северо-Восточный,Медведково Северное,"г. Москва, проезд. Студеный, д. 13",Нет данных,2,1,14.0,0.0,35.6,5418000,152191.01,270900,54180,Открытый аукцион в электронной форме,2023-10-26,2023-11-27,2023-12-04,2023-12-07,2023-12-07,55,3,4,17,16,-1,55.893519999999995,37.66598,Железобетонные,Панельный,Крупноблочные,муниципальный,220.0,1975.0,264.0,2.0,Исправный,Медведково,0.8,12.0,7.7000000000282e+16,Нет данных,0.0,Не включен в программу,Нет данных,Нет данных,https://www.roseltorg.ru/procedure/21000005000000016361,https://torgi.gov.ru/new/public/notices/view/21000005000000016361,https://investmoscow.ru/tenders/tender/19378421,https://flatinfo.ru/h_info1.asp?hid=61301
#ГП16939433,Продажа,Квартира,77:02:0004001:3240,Северо-Восточный,Медведково Северное,"г. Москва, проезд. Студеный, д. 19",128.0,2,11,12.0,0.0,38.1,5865000,153937.01,293250,58650,Открытый аукцион в электронной форме,2023-10-26,2023-11-27,2023-12-04,2023-12-07,2023-12-07,47,4,3,20,11,-1,55.893390000000004,37.67033,Железобетонные,Блочный,Крупноблочные,федеральный,389.0,1981.0,258.0,2.0,Исправный,Медведково,0.95,14.0,7.7000000000282e+16,Нет данных,0.0,Не включен в программу,Нет данных,Нет данных,https://www.roseltorg.ru/procedure/21000005000000016354,https://torgi.gov.ru/new/public/notices/view/21000005000000016354,https://investmoscow.ru/tenders/tender/19379984,https://flatinfo.ru/h_info1.asp?hid=61304
#ГП16939432,Продажа,Квартира,77:02:0004001:3193,Северо-Восточный,Медведково Северное,"г. Москва, проезд. Студеный, д. 19",80.0,1,7,12.0,0.0,18.7,3798000,203101.6,189900,37980,Открытый аукцион в электронной форме,2023-10-26,2023-11-27,2023-12-04,2023-12-07,2023-12-07,158,32,17,32,42,8,55.893390000000004,37.67033,Железобетонные,Блочный,Крупноблочные,федеральный,389.0,1981.0,258.0,2.0,Исправный,Медведково,0.95,14.0,7.7000000000282e+16,Нет данных,0.0,Не включен в программу,Нет данных,Нет данных,https://www.roseltorg.ru/procedure/21000005000000016355,https://torgi.gov.ru/new/public/notices/view/21000005000000016355,https://investmoscow.ru/tenders/tender/19379885,https://flatinfo.ru/h_info1.asp?hid=61304
#ГП16939430,Продажа,Квартира,77:02:0004001:3250,Северо-Восточный,Медведково Северное,"г. Москва, проезд. Студеный, д. 19",138.0,2,12,12.0,0.0,38.6,6066000,157150.26,303300,60660,Открытый аукцион в электронной форме,2023-10-26,2023-11-27,2023-12-04,2023-12-07,2023-12-07,158,32,17,32,42,8,55.893390000000004,37.67033,Железобетонные,Блочный,Крупноблочные,федеральный,389.0,1981.0,258.0,2.0,Исправный,Медведково,0.95,14.0,7.7000000000282e+16,Нет данных,0.0,Не включен в программу,Нет данных,Нет данных,https://www.roseltorg.ru/procedure/21000005000000016360,https://torgi.gov.ru/new/public/notices/view/21000005000000016360,https://investmoscow.ru/tenders/tender/19379204,https://flatinfo.ru/h_info1.asp?hid=61304
#ГП16939428,Продажа,Квартира,77:02:0004001:3180,Северо-Восточный,Медведково Северное,"г. Москва, проезд. Студеный, д. 19",67.0,1,6,12.0,0.0,18.2,3706000,203626.37,185300,37060,Открытый аукцион в электронной форме,2023-10-26,2023-11-27,2023-12-04,2023-12-07,2023-12-07,158,32,17,32,42,8,55.893390000000004,37.67033,Железобетонные,Блочный,Крупноблочные,федеральный,389.0,1981.0,258.0,2.0,Исправный,Медведково,0.95,14.0,7.7000000000282e+16,Нет данных,0.0,Не включен в программу,Нет данных,Нет данных,https://www.roseltorg.ru/procedure/21000005000000016362,https://torgi.gov.ru/new/public/notices/view/21000005000000016362,https://investmoscow.ru/tenders/tender/19378227,https://flatinfo.ru/h_info1.asp?hid=61304
#ГП16939431,Продажа,Квартира,77:02:0004001:3159,Северо-Восточный,Медведково Северное,"г. Москва, проезд. Студеный, д. 19",45.0,1,5,12.0,0.0,38.6,6925000,179404.15,346250,69250,Открытый аукцион в электронной форме,2023-10-26,2023-11-27,2023-12-04,2023-12-07,2023-12-07,158,32,17,32,42,8,55.893390000000004,37.67033,Железобетонные,Блочный,Крупноблочные,федеральный,389.0,1981.0,258.0,2.0,Исправный,Медведково,0.95,14.0,7.7000000000282e+16,Нет данных,0.0,Не включен в программу,Нет данных,Нет данных,https://www.roseltorg.ru/procedure/21000005000000016359,https://torgi.gov.ru/new/public/notices/view/21000005000000016359,https://investmoscow.ru/tenders/tender/19379620,https://flatinfo.ru/h_info1.asp?hid=61304
#ГП16939396,Продажа,Квартира,77:17:0120303:9892,Новомосковский,СП Сосенское,"г. Москва, п. Коммунарка, ул. Фитаревская, д. 21",11.0,2,2,25.0,0.0,56.1,10776000,192085.56,538800,107760,Открытый аукцион в электронной форме,2023-10-24,2023-11-27,2023-12-04,2023-12-07,2023-12-07,65,11,6,7,20,5,55.56538000000001,37.47876,Железобетонные,Монолитный,Из прочих материалов,Нет данных,-1.0,2014.0,-1.0,3.0,Исправный,Коммунарка,0.9,14.0,7.70170000020007e+16,Нет данных,0.0,Не включен в программу,Нет данных,Нет данных,https://www.roseltorg.ru/procedure/21000005000000016298,https://torgi.gov.ru/new/public/notices/view/21000005000000016298,https://investmoscow.ru/tenders/tender/19373959,https://flatinfo.ru/h_info1.asp?hid=242860
#ГП16939394,Продажа,Квартира,77:17:0120303:9885,Новомосковский,СП Сосенское,"г. Москва, п. Коммунарка, ул. Фитаревская, д. 21",6.0,2,1,25.0,0.0,57.5,10127000,176121.74,506350,101270,Открытый аукцион в электронной форме,2023-10-24,2023-11-27,2023-12-04,2023-12-07,2023-12-07,65,11,6,7,20,5,55.56538000000001,37.47876,Железобетонные,Монолитный,Из прочих материалов,Нет данных,-1.0,2014.0,-1.0,3.0,Исправный,Коммунарка,0.9,14.0,7.70170000020007e+16,Нет данных,0.0,Не включен в программу,Нет данных,Нет данных,https://www.roseltorg.ru/procedure/21000005000000016297,https://torgi.gov.ru/new/public/notices/view/21000005000000016297,https://investmoscow.ru/tenders/tender/19373837,https://flatinfo.ru/h_info1.asp?hid=242860
#ГП16939397,Продажа,Квартира,77:17:0120303:9884,Новомосковский,СП Сосенское,"г. Москва, п. Коммунарка, ул. Фитаревская, д. 21",10.0,2,2,25.0,0.0,45.4,8489000,186982.38,424450,84890,Открытый аукцион в электронной форме,2023-10-24,2023-11-27,2023-12-04,2023-12-07,2023-12-07,65,11,6,7,20,5,55.56538000000001,37.47876,Железобетонные,Монолитный,Из прочих материалов,Нет данных,-1.0,2014.0,-1.0,3.0,Исправный,Коммунарка,0.9,14.0,7.70170000020007e+16,Нет данных,0.0,Не включен в программу,Нет данных,Нет данных,https://www.roseltorg.ru/procedure/21000005000000016299,https://torgi.gov.ru/new/public/notices/view/21000005000000016299,https://investmoscow.ru/tenders/tender/19374028,https://flatinfo.ru/h_info1.asp?hid=242860
#ГП16939403,Продажа,Квартира,77:17:0120303:9891,Новомосковский,СП Сосенское,"г. Москва, п. Коммунарка, ул. Фитаревская, д. 21",7.0,2,1,25.0,0.0,46.5,8255000,177526.88,412750,82550,Открытый аукцион в электронной форме,2023-10-25,2023-11-27,2023-12-04,2023-12-07,2023-12-07,65,11,6,7,20,5,55.56538000000001,37.47876,Железобетонные,Монолитный,Из прочих материалов,Нет данных,-1.0,2014.0,-1.0,3.0,Исправный,Коммунарка,0.9,14.0,7.70170000020007e+16,Нет данных,0.0,Не включен в программу,Нет данных,Нет данных,https://www.roseltorg.ru/procedure/21000005000000016337,https://torgi.gov.ru/new/public/notices/view/21000005000000016337,https://investmoscow.ru/tenders/tender/19374638,https://flatinfo.ru/h_info1.asp?hid=242860
#ГП16939402,Продажа,Квартира,77:17:0120303:9899,Новомосковский,СП Сосенское,"г. Москва, п. Коммунарка, ул. Фитаревская, д. 21",17.0,2,2,25.0,0.0,45.4,8791000,193634.36,439550,87910,Открытый аукцион в электронной форме,2023-10-25,2023-11-27,2023-12-04,2023-12-07,2023-12-07,65,11,6,7,20,5,55.56538000000001,37.47876,Железобетонные,Монолитный,Из прочих материалов,Нет данных,-1.0,2014.0,-1.0,3.0,Исправный,Коммунарка,0.9,14.0,7.70170000020007e+16,Нет данных,0.0,Не включен в программу,Нет данных,Нет данных,https://www.roseltorg.ru/procedure/21000005000000016338,https://torgi.gov.ru/new/public/notices/view/21000005000000016338,https://investmoscow.ru/tenders/tender/19374358,https://flatinfo.ru/h_info1.asp?hid=242860
#ГП16939751,Продажа,Квартира,77:17:0120303:9886,Новомосковский,СП Сосенское,"г. Москва, п. Коммунарка, ул. Фитаревская, д. 21",2.0,2,1,25.0,0.0,46.6,7515000,161266.09,375750,75150,Открытый аукцион в электронной форме,2023-11-02,2023-12-04,2023-12-11,2023-12-14,2023-12-14,65,11,6,7,20,5,55.56538000000001,37.47876,Железобетонные,Монолитный,Из прочих материалов,Нет данных,-1.0,2014.0,-1.0,3.0,Исправный,Коммунарка,0.9,14.0,7.70170000020007e+16,Нет данных,0.0,Не включен в программу,Нет данных,Нет данных,https://www.roseltorg.ru/procedure/21000005000000016578,https://torgi.gov.ru/new/public/notices/view/21000005000000016578,https://investmoscow.ru/tenders/tender/19385247,https://flatinfo.ru/h_info1.asp?hid=242860
#ГП16940123,Продажа,Квартира,77:17:0120303:9894,Новомосковский,СП Сосенское,"г. Москва, п. Коммунарка, ул. Фитаревская, д. 21",16.0,2,2,25.0,0.0,56.6,10862000,191908.13,543100,108620,Открытый аукцион в электронной форме,2023-11-14,2023-12-15,2023-12-21,2023-12-25,2023-12-25,65,11,6,7,20,5,55.56538000000001,37.47876,Железобетонные,Монолитный,Из прочих материалов,Нет данных,-1.0,2014.0,-1.0,3.0,Исправный,Коммунарка,0.9,14.0,7.70170000020007e+16,Нет данных,0.0,Не включен в программу,Нет данных,Нет данных,https://www.roseltorg.ru/procedure/21000005000000016825,https://torgi.gov.ru/new/public/notices/view/21000005000000016825,https://investmoscow.ru/tenders/tender/19400304,https://flatinfo.ru/h_info1.asp?hid=242860
#ГП16940839,Продажа,Квартира,77:17:0120303:9890,Новомосковский,СП Сосенское,"г. Москва, п. Коммунарка, ул. Фитаревская, д. 21",3.0,2,1,25.0,0.0,57.2,9161000,160157.34,458050,91610,Открытый аукцион в электронной форме,2023-11-23,2024-01-18,2024-01-25,2024-01-29,2024-01-29,65,11,6,7,20,5,55.56538000000001,37.47876,Железобетонные,Монолитный,Из прочих материалов,Нет данных,-1.0,2014.0,-1.0,3.0,Исправный,Коммунарка,0.9,14.0,7.70170000020007e+16,Нет данных,0.0,Не включен в программу,Нет данных,Нет данных,https://www.roseltorg.ru/procedure/21000005000000016979,https://torgi.gov.ru/new/public/notices/view/21000005000000016979,https://investmoscow.ru/tenders/tender/19419333,https://flatinfo.ru/h_info1.asp?hid=242860
#ГП16939408,Продажа,Квартира,77:17:0120303:4183,Новомосковский,СП Сосенское,"г. Москва, п. Коммунарка, ул. Фитаревская, д. 19, к. 1",133.0,2,1,25.0,1.0,56.6,9418000,166395.76,470900,94180,Открытый аукцион в электронной форме,2023-10-24,2023-11-27,2023-12-04,2023-12-07,2023-12-07,78,12,7,10,24,5,55.566280000000006,37.47846,Железобетонные,Смешанный тип,Из прочих материалов,Нет данных,-1.0,2013.0,-1.0,2.0,Исправный,Коммунарка,0.95,14.0,7.70170000020007e+16,Нет данных,0.0,Не включен в программу,Нет данных,Нет данных,https://www.roseltorg.ru/procedure/21000005000000016300,https://torgi.gov.ru/new/public/notices/view/21000005000000016300,https://investmoscow.ru/tenders/tender/19376131,https://flatinfo.ru/h_info1.asp?hid=242859
#ГП16939462,Продажа,Квартира,77:17:0120303:4187,Новомосковский,СП Сосенское,"г. Москва, п. Коммунарка, ул. Фитаревская, д. 19, к. 1",7.0,2,1,25.0,1.0,56.4,9718000,172304.96,485900,97180,Открытый аукцион в электронной форме,2023-10-27,2023-11-27,2023-12-04,2023-12-07,2023-12-07,78,12,7,10,24,5,55.566280000000006,37.47846,Железобетонные,Смешанный тип,Из прочих материалов,Нет данных,-1.0,2013.0,-1.0,2.0,Исправный,Коммунарка,0.95,14.0,7.70170000020007e+16,Нет данных,0.0,Не включен в программу,Нет данных,Нет данных,https://www.roseltorg.ru/procedure/21000005000000016386,https://torgi.gov.ru/new/public/notices/view/21000005000000016386,https://investmoscow.ru/tenders/tender/19378715,https://flatinfo.ru/h_info1.asp?hid=242859
#ГП16939414,Продажа,Квартира,77:17:0120303:4189,Новомосковский,СП Сосенское,"г. Москва, п. Коммунарка, ул. Фитаревская, д. 19, к. 1",9.0,1,1,25.0,1.0,39.8,7535000,189321.61,376750,75350,Открытый аукцион в электронной форме,2023-10-24,2023-11-27,2023-12-04,2023-12-07,2023-12-07,78,12,7,10,24,5,55.566280000000006,37.47846,Железобетонные,Смешанный тип,Из прочих материалов,Нет данных,-1.0,2013.0,-1.0,2.0,Исправный,Коммунарка,0.95,14.0,7.70170000020007e+16,Нет данных,0.0,Не включен в программу,Нет данных,Нет данных,https://www.roseltorg.ru/procedure/21000005000000016301,https://torgi.gov.ru/new/public/notices/view/21000005000000016301,https://investmoscow.ru/tenders/tender/19376541,https://flatinfo.ru/h_info1.asp?hid=242859
#ГП16939876,Продажа,Квартира,77:17:0120303:4193,Новомосковский,СП Сосенское,"г. Москва, п. Коммунарка, ул. Фитаревская, д. 19, к. 1",1.0,2,1,25.0,1.0,59.7,9877000,165443.89,493850,98770,Открытый аукцион в электронной форме,2023-11-03,2023-12-04,2023-12-06,2023-12-08,2023-12-08,78,12,7,10,24,5,55.566280000000006,37.47846,Железобетонные,Смешанный тип,Из прочих материалов,Нет данных,-1.0,2013.0,-1.0,2.0,Исправный,Коммунарка,0.95,14.0,7.70170000020007e+16,Нет данных,0.0,Не включен в программу,Нет данных,Нет данных,https://www.roseltorg.ru/procedure/21000005000000016622,https://torgi.gov.ru/new/public/notices/view/21000005000000016622,https://investmoscow.ru/tenders/tender/19392959,https://flatinfo.ru/h_info1.asp?hid=242859
#ГП16939750,Продажа,Квартира,77:17:0120303:4185,Новомосковский,СП Сосенское,"г. Москва, п. Коммунарка, ул. Фитаревская, д. 19, к. 1",131.0,1,1,25.0,1.0,39.7,7349000,185113.35,367450,73490,Открытый аукцион в электронной форме,2023-11-02,2023-12-04,2023-12-11,2023-12-14,2023-12-14,78,12,7,10,24,5,55.566280000000006,37.47846,Железобетонные,Смешанный тип,Из прочих материалов,Нет данных,-1.0,2013.0,-1.0,2.0,Исправный,Коммунарка,0.95,14.0,7.70170000020007e+16,Нет данных,0.0,Не включен в программу,Нет данных,Нет данных,https://www.roseltorg.ru/procedure/21000005000000016562,https://torgi.gov.ru/new/public/notices/view/21000005000000016562,https://investmoscow.ru/tenders/tender/19386482,https://flatinfo.ru/h_info1.asp?hid=242859
#ГП16939871,Продажа,Квартира,77:17:0120303:4196,Новомосковский,СП Сосенское,"г. Москва, п. Коммунарка, ул. Фитаревская, д. 19, к. 1",132.0,2,1,25.0,1.0,50.8,8852000,174251.97,442600,88520,Открытый аукцион в электронной форме,2023-11-03,2024-01-15,2024-01-22,2024-01-25,2024-01-25,78,12,7,10,24,5,55.566280000000006,37.47846,Железобетонные,Смешанный тип,Из прочих материалов,Нет данных,-1.0,2013.0,-1.0,2.0,Исправный,Коммунарка,0.95,14.0,7.70170000020007e+16,Нет данных,0.0,Не включен в программу,Нет данных,Нет данных,https://www.roseltorg.ru/procedure/21000005000000016623,https://torgi.gov.ru/new/public/notices/view/21000005000000016623,https://investmoscow.ru/tenders/tender/19392759,https://flatinfo.ru/h_info1.asp?hid=242859
#ГП16939461,Продажа,Квартира,77:17:0120303:3290,Новомосковский,СП Сосенское,"г. Москва, п. Коммунарка, ул. Фитаревская, д. 17, к. 1",47.0,2,5,25.0,0.0,45.2,8748000,193539.82,437400,87480,Открытый аукцион в электронной форме,2023-10-27,2023-11-27,2023-12-04,2023-12-07,2023-12-07,81,12,7,14,24,5,55.566869999999994,37.47858,Железобетонные,Смешанный тип,Из прочих материалов,Нет данных,-1.0,2013.0,-1.0,3.0,Исправный,Коммунарка,1.0,15.0,7.70170000020007e+16,Нет данных,0.0,Не включен в программу,Нет данных,Нет данных,https://www.roseltorg.ru/procedure/21000005000000016387,https://torgi.gov.ru/new/public/notices/view/21000005000000016387,https://investmoscow.ru/tenders/tender/19378515,https://flatinfo.ru/h_info1.asp?hid=242858
#ГП16939422,Продажа,Квартира,77:17:0120303:3228,Новомосковский,СП Сосенское,"г. Москва, п. Коммунарка, ул. Фитаревская, д. 17, к. 1",10.0,2,2,25.0,0.0,45.4,9592000,211277.53,479600,95920,Открытый аукцион в электронной форме,2023-10-24,2023-11-27,2023-12-04,2023-12-07,2023-12-07,81,12,7,14,24,5,55.566869999999994,37.47858,Железобетонные,Смешанный тип,Из прочих материалов,Нет данных,-1.0,2013.0,-1.0,3.0,Исправный,Коммунарка,1.0,15.0,7.70170000020007e+16,Нет данных,0.0,Не включен в программу,Нет данных,Нет данных,https://www.roseltorg.ru/procedure/21000005000000016302,https://torgi.gov.ru/new/public/notices/view/21000005000000016302,https://investmoscow.ru/tenders/tender/19376797,https://flatinfo.ru/h_info1.asp?hid=242858
#ГП16939465,Продажа,Квартира,77:17:0120303:3221,Новомосковский,СП Сосенское,"г. Москва, п. Коммунарка, ул. Фитаревская, д. 17, к. 1",7.0,2,1,25.0,0.0,46.5,8251000,177440.86,412550,82510,Открытый аукцион в электронной форме,2023-10-27,2023-11-27,2023-12-04,2023-12-07,2023-12-07,81,12,7,14,24,5,55.566869999999994,37.47858,Железобетонные,Смешанный тип,Из прочих материалов,Нет данных,-1.0,2013.0,-1.0,3.0,Исправный,Коммунарка,1.0,15.0,7.70170000020007e+16,Нет данных,0.0,Не включен в программу,Нет данных,Нет данных,https://www.roseltorg.ru/procedure/21000005000000016385,https://torgi.gov.ru/new/public/notices/view/21000005000000016385,https://investmoscow.ru/tenders/tender/19378871,https://flatinfo.ru/h_info1.asp?hid=242858
#ГП16939453,Продажа,Квартира,77:17:0120303:3279,Новомосковский,СП Сосенское,"г. Москва, п. Коммунарка, ул. Фитаревская, д. 17, к. 1",37.0,2,4,25.0,0.0,45.2,8748000,193539.82,437400,87480,Открытый аукцион в электронной форме,2023-10-25,2023-11-27,2023-12-04,2023-12-07,2023-12-07,81,12,7,14,24,5,55.566869999999994,37.47858,Железобетонные,Смешанный тип,Из прочих материалов,Нет данных,-1.0,2013.0,-1.0,3.0,Исправный,Коммунарка,1.0,15.0,7.70170000020007e+16,Нет данных,0.0,Не включен в программу,Нет данных,Нет данных,https://www.roseltorg.ru/procedure/21000005000000016334,https://torgi.gov.ru/new/public/notices/view/21000005000000016334,https://investmoscow.ru/tenders/tender/19378347,https://flatinfo.ru/h_info1.asp?hid=242858
#ГП16939404,Продажа,Квартира,77:17:0120303:3215,Новомосковский,СП Сосенское,"г. Москва, п. Коммунарка, ул. Фитаревская, д. 17, к. 1",27.0,2,3,25.0,0.0,45.2,9550000,211283.19,477500,95500,Открытый аукцион в электронной форме,2023-10-26,2023-11-27,2023-12-04,2023-12-07,2023-12-07,81,12,7,14,24,5,55.566869999999994,37.47858,Железобетонные,Смешанный тип,Из прочих материалов,Нет данных,-1.0,2013.0,-1.0,3.0,Исправный,Коммунарка,1.0,15.0,7.70170000020007e+16,Нет данных,0.0,Не включен в программу,Нет данных,Нет данных,https://www.roseltorg.ru/procedure/21000005000000016365,https://torgi.gov.ru/new/public/notices/view/21000005000000016365,https://investmoscow.ru/tenders/tender/19374818,https://flatinfo.ru/h_info1.asp?hid=242858
#ГП16939829,Продажа,Квартира,77:17:0120303:3209,Новомосковский,СП Сосенское,"г. Москва, п. Коммунарка, ул. Фитаревская, д. 17, к. 1",2.0,2,1,25.0,0.0,46.7,8287000,177451.82,414350,82870,Открытый аукцион в электронной форме,2023-11-01,2023-12-01,2023-12-08,2023-12-12,2023-12-12,81,12,7,14,24,5,55.566869999999994,37.47858,Железобетонные,Смешанный тип,Из прочих материалов,Нет данных,-1.0,2013.0,-1.0,3.0,Исправный,Коммунарка,1.0,15.0,7.70170000020007e+16,Нет данных,0.0,Не включен в программу,Нет данных,Нет данных,https://www.roseltorg.ru/procedure/21000005000000016525,https://torgi.gov.ru/new/public/notices/view/21000005000000016525,https://investmoscow.ru/tenders/tender/19388647,https://flatinfo.ru/h_info1.asp?hid=242858
#ГП16939836,Продажа,Квартира,77:17:0120303:3225,Новомосковский,СП Сосенское,"г. Москва, п. Коммунарка, ул. Фитаревская, д. 17, к. 1",3.0,2,1,25.0,0.0,57.4,9919000,172804.88,495950,99190,Открытый аукцион в электронной форме,2023-11-01,2023-12-01,2023-12-08,2023-12-12,2023-12-12,81,12,7,14,24,5,55.566869999999994,37.47858,Железобетонные,Смешанный тип,Из прочих материалов,Нет данных,-1.0,2013.0,-1.0,3.0,Исправный,Коммунарка,1.0,15.0,7.70170000020007e+16,Нет данных,0.0,Не включен в программу,Нет данных,Нет данных,https://www.roseltorg.ru/procedure/21000005000000016526,https://torgi.gov.ru/new/public/notices/view/21000005000000016526,https://investmoscow.ru/tenders/tender/19389099,https://flatinfo.ru/h_info1.asp?hid=242858
#ГП16940119,Продажа,Квартира,77:17:0120303:3307,Новомосковский,СП Сосенское,"г. Москва, п. Коммунарка, ул. Фитаревская, д. 17, к. 1",30.0,2,4,25.0,0.0,45.4,8787000,193546.26,439350,87870,Открытый аукцион в электронной форме,2023-11-14,2023-12-15,2023-12-21,2023-12-25,2023-12-25,81,12,7,14,24,5,55.566869999999994,37.47858,Железобетонные,Смешанный тип,Из прочих материалов,Нет данных,-1.0,2013.0,-1.0,3.0,Исправный,Коммунарка,1.0,15.0,7.70170000020007e+16,Нет данных,0.0,Не включен в программу,Нет данных,Нет данных,https://www.roseltorg.ru/procedure/21000005000000016820,https://torgi.gov.ru/new/public/notices/view/21000005000000016820,https://investmoscow.ru/tenders/tender/19400111,https://flatinfo.ru/h_info1.asp?hid=242858
#ГП16939830,Продажа,Квартира,77:17:0120303:3220,Новомосковский,СП Сосенское,"г. Москва, п. Коммунарка, ул. Фитаревская, д. 17, к. 1",6.0,2,1,25.0,0.0,57.4,10146000,176759.58,507300,101460,Открытый аукцион в электронной форме,2023-11-23,2024-01-15,2024-01-22,2024-01-25,2024-01-25,81,12,7,14,24,5,55.566869999999994,37.47858,Железобетонные,Смешанный тип,Из прочих материалов,Нет данных,-1.0,2013.0,-1.0,3.0,Исправный,Коммунарка,1.0,15.0,7.70170000020007e+16,Нет данных,0.0,Не включен в программу,Нет данных,Нет данных,https://www.roseltorg.ru/procedure/21000005000000016981,https://torgi.gov.ru/new/public/notices/view/21000005000000016981,https://investmoscow.ru/tenders/tender/19388892,https://flatinfo.ru/h_info1.asp?hid=242858
#ГП16939434,Продажа,Квартира,77:01:0002003:2693,Центральный,Якиманка,"г. Москва, ул. Якиманка Б., д. 35, стр. 1",9.0,1,5,6.0,0.0,62.7,13799000,220079.74,689950,137990,Открытый аукцион в электронной форме,2023-10-26,2023-11-27,2023-12-04,2023-12-07,2023-12-07,158,32,17,32,42,8,55.73459,37.61354,деревянные,Кирпичный,Кирпичные,муниципальный,31.0,1900.0,-1.0,1.0,Исправный,Полянка,0.45,7.0,7.70000000007019e+16,Нет данных,0.0,Не включен в программу,Нет данных,Нет данных,https://www.roseltorg.ru/procedure/21000005000000016353,https://torgi.gov.ru/new/public/notices/view/21000005000000016353,https://investmoscow.ru/tenders/tender/19378089,https://flatinfo.ru/h_info1.asp?hid=184935
#ГП16939254,Продажа,Квартира,77:01:0006035:2566,Центральный,Таганский,"г. Москва, ул. Калитниковская М., д. 5",63.0,2,2,7.0,0.0,38.9,10248000,263444.73,512400,102480,Открытый аукцион в электронной форме,2023-10-26,2023-11-28,2023-12-05,2023-12-07,2023-12-07,85,8,20,15,24,4,55.73724,37.67767,Железобетонные,Кирпичный,Кирпичные,муниципальный,244.0,1966.0,264.0,1.0,Исправный,Пролетарская,0.95,15.0,7.70000000001419e+16,Нет данных,0.0,Не включен в программу,Нет данных,Нет данных,https://www.roseltorg.ru/procedure/21000005000000016368,https://torgi.gov.ru/new/public/notices/view/21000005000000016368,https://investmoscow.ru/tenders/tender/19373044,https://flatinfo.ru/h_info1.asp?hid=23010
#ГП16939251,Продажа,Квартира,77:02:0025009:3913,Северо-Восточный,Северный,"г. Москва, ул. Северная линия 9-я, д. 25, к. 3",7.0,1,3,24.0,0.0,39.0,9249000,237153.85,462450,92490,Открытый аукцион в электронной форме,2023-10-26,2023-11-28,2023-12-05,2023-12-07,2023-12-07,-1,-1,-1,-1,-1,-1,55.9328,37.55431,Железобетонные,Монолит-Кирпич,Железобетонные Монолитные,Нет данных,-1.0,2008.0,264.0,3.0,Исправный,Физтех,1.55,23.0,7.70000000007081e+16,Нет данных,0.0,Не включен в программу,Нет данных,Нет данных,https://www.roseltorg.ru/procedure/21000005000000016369,https://torgi.gov.ru/new/public/notices/view/21000005000000016369,https://investmoscow.ru/tenders/tender/19372356,https://flatinfo.ru/h_info1.asp?hid=147794
#ГП16940007,Продажа,Квартира,77:01:0001090:2748,Центральный,Мещанский,"г. Москва, пер. Сергиевский Б., д. 9",13.0,4,1,6.0,0.0,78.8,17030000,216116.75,851500,170300,Открытый аукцион в электронной форме,2023-11-03,2023-12-04,2023-12-06,2023-12-08,2023-12-08,319,194,28,11,70,1,55.76849,37.6269,железобетонные,Кирпичный,Кирпичные,муниципальный,128.0,1932.0,-1.0,1.0,Исправный,Трубная,0.35,6.0,7.70000000002615e+16,Нет данных,0.0,Не включен в программу,Нет данных,Нет данных,https://www.roseltorg.ru/procedure/21000005000000016627,https://torgi.gov.ru/new/public/notices/view/21000005000000016627,https://investmoscow.ru/tenders/tender/19393422,https://flatinfo.ru/h_info1.asp?hid=97276
#ГП16940059,Продажа,Квартира,77:02:0002011:4580,Северо-Восточный,Бибирево,"г. Москва, ул. Коненкова, д. 11Б",62.0,1,7,9.0,0.0,32.8,6105000,186128.05,305250,61050,Открытый аукцион в электронной форме,2023-11-14,2023-12-15,2023-12-21,2023-12-25,2023-12-25,94,11,7,30,21,1,55.89141,37.60445,Железобетонные,Панельный,Крупнопанельные,муниципальный,882.0,1974.0,264.0,1.0,Исправный,Бибирево,0.85,13.0,7.70000000001532e+16,Нет данных,0.0,Не включен в программу,Нет данных,Нет данных,https://www.roseltorg.ru/procedure/21000005000000016809,https://torgi.gov.ru/new/public/notices/view/21000005000000016809,https://investmoscow.ru/tenders/tender/19398589,https://flatinfo.ru/h_info1.asp?hid=60871
#ГП16940476,Продажа,Квартира,77:01:0005008:3001,Центральный,Хамовники,"г. Москва, ул. Пироговская М., д. 9/6",28.0,5,4,6.0,0.0,96.9,19555000,201805.99,977750,195550,Открытый аукцион в электронной форме,2023-11-15,2023-12-18,2023-12-25,2023-12-27,2023-12-27,130,67,14,21,20,1,55.73,37.57205,деревянные,Кирпичный,Кирпичные,муниципальный,66.0,1933.0,-1.0,1.0,Исправный,Фрунзенская,0.65,10.0,7.70000000002287e+16,Нет данных,0.0,Не включен в программу,Нет данных,Нет данных,https://www.roseltorg.ru/procedure/21000005000000016854,https://torgi.gov.ru/new/public/notices/view/21000005000000016854,https://investmoscow.ru/tenders/tender/19410091,https://flatinfo.ru/h_info1.asp?hid=186785
#ГП16940478,Продажа,Квартира,77:04:0001012:2034,Юго-Восточный,Нижегородский,"г. Москва, ул. Подъемная, д. 1",179.0,2,11,16.0,0.0,34.8,5695000,163649.43,284750,56950,Открытый аукцион в электронной форме,2023-11-15,2023-12-18,2023-12-25,2023-12-27,2023-12-27,34,8,4,5,14,1,55.73768000000001,37.704390000000004,Железобетонные,Панельный,Крупноблочные,муниципальный,-1.0,1974.0,-1.0,3.0,Исправный,Калитники,0.45,7.0,7.70000000000303e+16,Нет данных,0.0,Не включен в программу,Нет данных,Нет данных,https://www.roseltorg.ru/procedure/21000005000000016848,https://torgi.gov.ru/new/public/notices/view/21000005000000016848,https://investmoscow.ru/tenders/tender/19410134,https://flatinfo.ru/h_info1.asp?hid=23476
#ГП16940477,Продажа,Квартира,77:04:0001012:1917,Юго-Восточный,Нижегородский,"г. Москва, ул. Подъемная, д. 1",228.0,1,14,16.0,0.0,17.4,3065000,176149.43,153250,30650,Открытый аукцион в электронной форме,2023-11-15,2023-12-18,2023-12-25,2023-12-27,2023-12-27,34,8,4,5,14,1,55.73768000000001,37.704390000000004,Железобетонные,Панельный,Крупноблочные,муниципальный,-1.0,1974.0,-1.0,3.0,Исправный,Калитники,0.45,7.0,7.70000000000303e+16,Нет данных,0.0,Не включен в программу,Нет данных,Нет данных,https://www.roseltorg.ru/procedure/21000005000000016849,https://torgi.gov.ru/new/public/notices/view/21000005000000016849,https://investmoscow.ru/tenders/tender/19410101,https://flatinfo.ru/h_info1.asp?hid=23476
#ГП16940460,Продажа,Квартира,77:04:0001012:1883,Юго-Восточный,Нижегородский,"г. Москва, ул. Подъемная, д. 1",213.0,1,13,16.0,0.0,19.0,3249000,171000.0,162450,32490,Открытый аукцион в электронной форме,2023-11-15,2023-12-18,2023-12-25,2023-12-27,2023-12-27,34,8,4,5,14,1,55.73768000000001,37.704390000000004,Железобетонные,Панельный,Крупноблочные,муниципальный,-1.0,1974.0,-1.0,3.0,Исправный,Калитники,0.45,7.0,7.70000000000303e+16,Нет данных,0.0,Не включен в программу,Нет данных,Нет данных,https://www.roseltorg.ru/procedure/21000005000000016861,https://torgi.gov.ru/new/public/notices/view/21000005000000016861,https://investmoscow.ru/tenders/tender/19407220,https://flatinfo.ru/h_info1.asp?hid=23476
#ГП16939037,Продажа,Квартира,77:04:0001012:1923,Юго-Восточный,Нижегородский,"г. Москва, ул. Подъемная, д. 1",236.0,2,14,16.0,0.0,35.7,5133000,143781.51,256650,51330,Открытый аукцион в электронной форме,2023-11-15,2023-12-18,2023-12-25,2023-12-27,2023-12-27,34,8,4,5,14,1,55.73768000000001,37.704390000000004,Железобетонные,Панельный,Крупноблочные,муниципальный,-1.0,1974.0,-1.0,3.0,Исправный,Калитники,0.45,7.0,7.70000000000303e+16,Нет данных,0.0,Не включен в программу,Нет данных,Нет данных,https://www.roseltorg.ru/procedure/21000005000000016850,https://torgi.gov.ru/new/public/notices/view/21000005000000016850,https://investmoscow.ru/tenders/tender/19406522,https://flatinfo.ru/h_info1.asp?hid=23476
#ГП16940452,Продажа,Квартира,77:04:0001012:1910,Юго-Восточный,Нижегородский,"г. Москва, ул. Подъемная, д. 1",221.0,2,14,16.0,0.0,36.3,5913000,162892.56,295650,59130,Открытый аукцион в электронной форме,2023-11-15,2023-12-18,2023-12-25,2023-12-27,2023-12-27,34,8,4,5,14,1,55.73768000000001,37.704390000000004,Железобетонные,Панельный,Крупноблочные,муниципальный,-1.0,1974.0,-1.0,3.0,Исправный,Калитники,0.45,7.0,7.70000000000303e+16,Нет данных,0.0,Не включен в программу,Нет данных,Нет данных,https://www.roseltorg.ru/procedure/21000005000000016847,https://torgi.gov.ru/new/public/notices/view/21000005000000016847,https://investmoscow.ru/tenders/tender/19406476,https://flatinfo.ru/h_info1.asp?hid=23476
#ГП16940968,Продажа,Квартира,77:04:0001018:4134,Юго-Восточный,Южнопортовый,"г. Москва, ул. Машиностроения 2-я, д. 9",67.0,3,1,9.0,0.0,53.8,8533000,158605.95,426650,85330,Открытый аукцион в электронной форме,2023-11-24,2024-01-15,2024-01-22,2024-01-25,2024-01-25,161,42,9,36,30,1,55.71334,37.67511,Смешанные,Кирпичный,Кирпичные,муниципальный,418.0,1962.0,264.0,1.0,Исправный,Дубровка,0.25,4.0,7.70000000000197e+16,Нет данных,0.0,Не включен в программу,Нет данных,Нет данных,https://www.roseltorg.ru/procedure/21000005000000017017,https://torgi.gov.ru/new/public/notices/view/21000005000000017017,https://investmoscow.ru/tenders/tender/19424834,https://flatinfo.ru/h_info1.asp?hid=22685
#ГП16940965,Продажа,Квартира,77:17:0120303:801,Новомосковский,СП Сосенское,"г. Москва, п. Коммунарка, ул. Фитаревская, д. 17",16.0,3,2,25.0,0.0,55.8,11478000,205698.92,573900,114780,Открытый аукцион в электронной форме,2023-11-24,2024-01-15,2024-01-22,2024-01-25,2024-01-25,79,14,6,13,25,5,55.56649,37.47975,Железобетонные,Смешанный тип,Из прочих материалов,Нет данных,260.0,2013.0,-1.0,3.0,Исправный,Коммунарка,1.05,16.0,7.70170000020007e+16,Нет данных,0.0,Не включен в программу,Нет данных,Нет данных,https://www.roseltorg.ru/procedure/21000005000000017020,https://torgi.gov.ru/new/public/notices/view/21000005000000017020,https://investmoscow.ru/tenders/tender/19424414,https://flatinfo.ru/h_info1.asp?hid=242857
#ГП16939256,Продажа,Квартира,77:03:0005021:4892,Восточный,Измайлово Восточное,"г. Москва, ул. Парковая 16-я, д. 19, к. 1",15.0,1,3,12.0,0.0,35.0,8331000,238028.57,416550,83310,Открытый аукцион в электронной форме,2023-10-26,2024-01-16,2024-01-23,2024-01-25,2024-01-25,46,8,6,32,11,1,55.7994,37.82235,железобетонные,Панельный,Крупноблочные,муниципальный,315.0,1969.0,250.0,2.0,Исправный,Первомайская,1.55,24.0,7.70000000002214e+16,Нет данных,0.0,Не включен в программу,Нет данных,Нет данных,https://www.roseltorg.ru/procedure/21000005000000016344,https://torgi.gov.ru/new/public/notices/view/21000005000000016344,https://investmoscow.ru/tenders/tender/19373808,https://flatinfo.ru/h_info1.asp?hid=48211
#ГП16939255,Продажа,Квартира,77:01:0003041:3201,Центральный,Красносельский,"г. Москва, ул. Спасская Б., д. 10, к. 1",236.0,1,8,16.0,0.0,37.5,11055000,294800.0,552750,110550,Открытый аукцион в электронной форме,2023-10-26,2024-01-16,2024-01-23,2024-01-25,2024-01-25,91,34,22,6,19,1,55.77548,37.64598,железобетонные,Панельный,Крупнопанельные,ЖСК - жилищно-строительные кооперативы,843.0,1978.0,-1.0,1.0,исправный,Каланчёвская,0.4,6.0,7.70000000000684e+16,Нет данных,0.0,Не включен в программу,Нет данных,Нет данных,https://www.roseltorg.ru/procedure/21000005000000016345,https://torgi.gov.ru/new/public/notices/view/21000005000000016345,https://investmoscow.ru/tenders/tender/19373219,https://flatinfo.ru/h_info1.asp?hid=189030
#ГП16940877,Продажа,Квартира,77:01:0001086:1856,Центральный,Красносельский,"г. Москва, пл. Сухаревская Б., д. 16/18, стр. 4",Нет данных,3,4,4.0,0.0,35.2,6916000,196477.27,345800,69160,Открытый аукцион в электронной форме,2023-11-23,2024-01-18,2024-01-25,2024-01-29,2024-01-29,140,88,25,13,45,14,55.77121999999999,37.63749,Железобетонные,Кирпичный,Кирпичные,Нет данных,10.0,1933.0,-1.0,-1.0,Исправный,Сухаревская,0.4,6.0,7.70000000007064e+16,Нет данных,0.0,Не включен в программу,Нет данных,Нет данных,https://www.roseltorg.ru/procedure/21000005000000017010,https://torgi.gov.ru/new/public/notices/view/21000005000000017010,https://investmoscow.ru/tenders/tender/19421144,https://flatinfo.ru/h_info1.asp?hid=257702
#ГП16938403,Продажа,Квартира,77:17:0120303:9221,Новомосковский,СП Сосенское,"г. Москва, п. Коммунарка, ул. Александры Монаховой, д. 23",317.0,4,14,18.0,1.0,111.3,18555000,166711.59,927750,185550,Открытый аукцион в электронной форме,2023-11-23,2024-01-18,2024-01-25,2024-01-29,2024-01-29,80,14,4,17,26,-1,55.56915,37.47982,Железобетонные,Смешанный тип,Из прочих материалов,Нет данных,-1.0,2014.0,-1.0,2.0,Исправный,Коммунарка,1.25,19.0,Нет данных,Нет данных,0.0,Не включен в программу,Нет данных,Нет данных,https://www.roseltorg.ru/procedure/21000005000000016982,https://torgi.gov.ru/new/public/notices/view/21000005000000016982,https://investmoscow.ru/tenders/tender/19411781,https://flatinfo.ru/h_info1.asp?hid=270079
#ГП16939542,Продажа,Квартира,77:17:0120303:5957,Новомосковский,СП Сосенское,"г. Москва, п. Коммунарка, мкр. Эдальго, д. 4",39.0,3,10,17.0,0.0,64.7,7717000,119273.57,385850,77170,Открытый аукцион в электронной форме,2023-10-27,2023-11-30,2023-12-07,2023-12-11,2023-12-11,78,21,5,18,21,-1,55.5726,37.48746,Железобетонные,Кирпичный,Из легкобетонных панелей,Нет данных,-1.0,2011.0,-1.0,2.0,Исправный,Отсутствует в пешей доступности,20.0,90.0,7.70170000020008e+16,Нет данных,0.0,Не включен в программу,Нет данных,Нет данных,https://www.roseltorg.ru/procedure/21000005000000016378,https://torgi.gov.ru/new/public/notices/view/21000005000000016378,https://investmoscow.ru/tenders/tender/19382008,https://flatinfo.ru/h_info1.asp?hid=204790
#ГП16939538,Продажа,Квартира,77:17:0120303:4784,Новомосковский,СП Сосенское,"г. Москва, п. Коммунарка, мкр. Эдальго, д. 4",32.0,3,9,17.0,0.0,65.8,7828000,118966.57,391400,78280,Открытый аукцион в электронной форме,2023-10-27,2023-11-30,2023-12-07,2023-12-11,2023-12-11,78,21,5,18,21,-1,55.5726,37.48746,Железобетонные,Кирпичный,Из легкобетонных панелей,Нет данных,-1.0,2011.0,-1.0,2.0,Исправный,Отсутствует в пешей доступности,20.0,90.0,7.70170000020008e+16,Нет данных,0.0,Не включен в программу,Нет данных,Нет данных,https://www.roseltorg.ru/procedure/21000005000000016379,https://torgi.gov.ru/new/public/notices/view/21000005000000016379,https://investmoscow.ru/tenders/tender/19381765,https://flatinfo.ru/h_info1.asp?hid=204790
#ГП16939543,Продажа,Квартира,77:17:0120303:6172,Новомосковский,СП Сосенское,"г. Москва, п. Коммунарка, мкр. Эдальго, д. 4",8.0,3,3,17.0,0.0,65.8,7828000,118966.57,391400,78280,Открытый аукцион в электронной форме,2023-10-27,2023-11-30,2023-12-07,2023-12-11,2023-12-11,78,21,5,18,21,-1,55.5726,37.48746,Железобетонные,Кирпичный,Из легкобетонных панелей,Нет данных,-1.0,2011.0,-1.0,2.0,Исправный,Отсутствует в пешей доступности,20.0,90.0,7.70170000020008e+16,Нет данных,0.0,Не включен в программу,Нет данных,Нет данных,https://www.roseltorg.ru/procedure/21000005000000016377,https://torgi.gov.ru/new/public/notices/view/21000005000000016377,https://investmoscow.ru/tenders/tender/19382014,https://flatinfo.ru/h_info1.asp?hid=204790
#ГП16939540,Продажа,Квартира,77:17:0120303:5188,Новомосковский,СП Сосенское,"г. Москва, п. Коммунарка, мкр. Эдальго, д. 4",36.0,3,10,17.0,0.0,65.6,7811000,119070.12,390550,78110,Открытый аукцион в электронной форме,2023-10-27,2023-11-30,2023-12-07,2023-12-11,2023-12-11,78,21,5,18,21,-1,55.5726,37.48746,Железобетонные,Кирпичный,Из легкобетонных панелей,Нет данных,-1.0,2011.0,-1.0,2.0,Исправный,Отсутствует в пешей доступности,20.0,90.0,7.70170000020008e+16,Нет данных,0.0,Не включен в программу,Нет данных,Нет данных,https://www.roseltorg.ru/procedure/21000005000000016381,https://torgi.gov.ru/new/public/notices/view/21000005000000016381,https://investmoscow.ru/tenders/tender/19381992,https://flatinfo.ru/h_info1.asp?hid=204790
#ГП16939534,Продажа,Квартира,77:17:0120303:6852,Новомосковский,СП Сосенское,"г. Москва, п. Коммунарка, мкр. Эдальго, д. 4",28.0,3,8,17.0,0.0,66.0,7852000,118969.7,392600,78520,Открытый аукцион в электронной форме,2023-10-27,2023-11-30,2023-12-07,2023-12-11,2023-12-11,78,21,5,18,21,-1,55.5726,37.48746,Железобетонные,Кирпичный,Из легкобетонных панелей,Нет данных,-1.0,2011.0,-1.0,2.0,Исправный,Отсутствует в пешей доступности,20.0,90.0,7.70170000020008e+16,Нет данных,0.0,Не включен в программу,Нет данных,Нет данных,https://www.roseltorg.ru/procedure/21000005000000016380,https://torgi.gov.ru/new/public/notices/view/21000005000000016380,https://investmoscow.ru/tenders/tender/19381583,https://flatinfo.ru/h_info1.asp?hid=204790
#ГП16939995,Продажа,Квартира,77:17:0120303:6006,Новомосковский,СП Сосенское,"г. Москва, п. Коммунарка, мкр. Эдальго, д. 4",161.0,3,6,17.0,0.0,57.0,6920000,121403.51,346000,69200,Открытый аукцион в электронной форме,2023-11-02,2023-12-04,2023-12-11,2023-12-14,2023-12-14,78,21,5,18,21,-1,55.5726,37.48746,Железобетонные,Кирпичный,Из легкобетонных панелей,Нет данных,-1.0,2011.0,-1.0,2.0,Исправный,Отсутствует в пешей доступности,20.0,90.0,7.70170000020008e+16,Нет данных,0.0,Не включен в программу,Нет данных,Нет данных,https://www.roseltorg.ru/procedure/21000005000000016573,https://torgi.gov.ru/new/public/notices/view/21000005000000016573,https://investmoscow.ru/tenders/tender/19393516,https://flatinfo.ru/h_info1.asp?hid=204790
#ГП16939745,Продажа,Квартира,77:17:0120303:6020,Новомосковский,СП Сосенское,"г. Москва, п. Коммунарка, мкр. Эдальго, д. 4",149.0,3,4,17.0,0.0,56.2,6836000,121637.01,341800,68360,Открытый аукцион в электронной форме,2023-10-31,2023-12-04,2023-12-11,2023-12-14,2023-12-14,78,21,5,18,21,-1,55.5726,37.48746,Железобетонные,Кирпичный,Из легкобетонных панелей,Нет данных,-1.0,2011.0,-1.0,2.0,Исправный,Отсутствует в пешей доступности,20.0,90.0,7.70170000020008e+16,Нет данных,0.0,Не включен в программу,Нет данных,Нет данных,https://www.roseltorg.ru/procedure/21000005000000016498,https://torgi.gov.ru/new/public/notices/view/21000005000000016498,https://investmoscow.ru/tenders/tender/19386363,https://flatinfo.ru/h_info1.asp?hid=204790
#ГП16939635,Продажа,Квартира,77:17:0120303:6850,Новомосковский,СП Сосенское,"г. Москва, п. Коммунарка, мкр. Эдальго, д. 4",24.0,3,7,17.0,0.0,65.7,7817000,118980.21,390850,78170,Открытый аукцион в электронной форме,2023-10-31,2023-12-04,2023-12-11,2023-12-14,2023-12-14,78,21,5,18,21,-1,55.5726,37.48746,Железобетонные,Кирпичный,Из легкобетонных панелей,Нет данных,-1.0,2011.0,-1.0,2.0,Исправный,Отсутствует в пешей доступности,20.0,90.0,7.70170000020008e+16,Нет данных,0.0,Не включен в программу,Нет данных,Нет данных,https://www.roseltorg.ru/procedure/21000005000000016502,https://torgi.gov.ru/new/public/notices/view/21000005000000016502,https://investmoscow.ru/tenders/tender/19386111,https://flatinfo.ru/h_info1.asp?hid=204790
#ГП16939859,Продажа,Квартира,77:17:0120303:6851,Новомосковский,СП Сосенское,"г. Москва, п. Коммунарка, мкр. Эдальго, д. 4",27.0,3,7,17.0,0.0,64.9,7738000,119229.58,386900,77380,Открытый аукцион в электронной форме,2023-11-03,2023-12-04,2023-12-06,2023-12-08,2023-12-08,78,21,5,18,21,-1,55.5726,37.48746,Железобетонные,Кирпичный,Из легкобетонных панелей,Нет данных,-1.0,2011.0,-1.0,2.0,Исправный,Отсутствует в пешей доступности,20.0,90.0,7.70170000020008e+16,Нет данных,0.0,Не включен в программу,Нет данных,Нет данных,https://www.roseltorg.ru/procedure/21000005000000016618,https://torgi.gov.ru/new/public/notices/view/21000005000000016618,https://investmoscow.ru/tenders/tender/19389471,https://flatinfo.ru/h_info1.asp?hid=204790
#ГП16939880,Продажа,Квартира,77:17:0120303:4671,Новомосковский,СП Сосенское,"г. Москва, п. Коммунарка, мкр. Эдальго, д. 4",137.0,2,2,17.0,0.0,56.2,6836000,121637.01,341800,68360,Открытый аукцион в электронной форме,2023-11-03,2023-12-04,2023-12-06,2023-12-08,2023-12-08,78,21,5,18,21,-1,55.5726,37.48746,Железобетонные,Кирпичный,Из легкобетонных панелей,Нет данных,-1.0,2011.0,-1.0,2.0,Исправный,Отсутствует в пешей доступности,20.0,90.0,7.70170000020008e+16,Нет данных,0.0,Не включен в программу,Нет данных,Нет данных,https://www.roseltorg.ru/procedure/21000005000000016614,https://torgi.gov.ru/new/public/notices/view/21000005000000016614,https://investmoscow.ru/tenders/tender/19393009,https://flatinfo.ru/h_info1.asp?hid=204790
#ГП16939994,Продажа,Квартира,77:17:0120303:5839,Новомосковский,СП Сосенское,"г. Москва, п. Коммунарка, мкр. Эдальго, д. 4",31.0,3,8,17.0,0.0,64.8,7726000,119228.4,386300,77260,Открытый аукцион в электронной форме,2023-11-02,2023-12-04,2023-12-11,2023-12-14,2023-12-14,78,21,5,18,21,-1,55.5726,37.48746,Железобетонные,Кирпичный,Из легкобетонных панелей,Нет данных,-1.0,2011.0,-1.0,2.0,Исправный,Отсутствует в пешей доступности,20.0,90.0,7.70170000020008e+16,Нет данных,0.0,Не включен в программу,Нет данных,Нет данных,https://www.roseltorg.ru/procedure/21000005000000016577,https://torgi.gov.ru/new/public/notices/view/21000005000000016577,https://investmoscow.ru/tenders/tender/19393243,https://flatinfo.ru/h_info1.asp?hid=204790
#ГП16939743,Продажа,Квартира,77:17:0120303:6118,Новомосковский,СП Сосенское,"г. Москва, п. Коммунарка, мкр. Эдальго, д. 4",16.0,3,5,17.0,0.0,65.7,7817000,118980.21,390850,78170,Открытый аукцион в электронной форме,2023-10-31,2023-12-04,2023-12-11,2023-12-14,2023-12-14,78,21,5,18,21,-1,55.5726,37.48746,Железобетонные,Кирпичный,Из легкобетонных панелей,Нет данных,-1.0,2011.0,-1.0,2.0,Исправный,Отсутствует в пешей доступности,20.0,90.0,7.70170000020008e+16,Нет данных,0.0,Не включен в программу,Нет данных,Нет данных,https://www.roseltorg.ru/procedure/21000005000000016499,https://torgi.gov.ru/new/public/notices/view/21000005000000016499,https://investmoscow.ru/tenders/tender/19386333,https://flatinfo.ru/h_info1.asp?hid=204790
#ГП16939739,Продажа,Квартира,77:17:0120303:4787,Новомосковский,СП Сосенское,"г. Москва, п. Коммунарка, мкр. Эдальго, д. 4",143.0,3,3,17.0,0.0,56.2,6836000,121637.01,341800,68360,Открытый аукцион в электронной форме,2023-10-31,2023-12-04,2023-12-11,2023-12-14,2023-12-14,78,21,5,18,21,-1,55.5726,37.48746,Железобетонные,Кирпичный,Из легкобетонных панелей,Нет данных,-1.0,2011.0,-1.0,2.0,Исправный,Отсутствует в пешей доступности,20.0,90.0,7.70170000020008e+16,Нет данных,0.0,Не включен в программу,Нет данных,Нет данных,https://www.roseltorg.ru/procedure/21000005000000016500,https://torgi.gov.ru/new/public/notices/view/21000005000000016500,https://investmoscow.ru/tenders/tender/19386308,https://flatinfo.ru/h_info1.asp?hid=204790
#ГП16939634,Продажа,Квартира,77:17:0120303:4782,Новомосковский,СП Сосенское,"г. Москва, п. Коммунарка, мкр. Эдальго, д. 4",35.0,3,9,17.0,0.0,64.7,7717000,119273.57,385850,77170,Открытый аукцион в электронной форме,2023-10-31,2023-12-04,2023-12-11,2023-12-14,2023-12-14,78,21,5,18,21,-1,55.5726,37.48746,Железобетонные,Кирпичный,Из легкобетонных панелей,Нет данных,-1.0,2011.0,-1.0,2.0,Исправный,Отсутствует в пешей доступности,20.0,90.0,7.70170000020008e+16,Нет данных,0.0,Не включен в программу,Нет данных,Нет данных,https://www.roseltorg.ru/procedure/21000005000000016503,https://torgi.gov.ru/new/public/notices/view/21000005000000016503,https://investmoscow.ru/tenders/tender/19386061,https://flatinfo.ru/h_info1.asp?hid=204790
#ГП16939748,Продажа,Квартира,77:17:0120303:4765,Новомосковский,СП Сосенское,"г. Москва, п. Коммунарка, мкр. Эдальго, д. 4",40.0,3,11,17.0,0.0,65.6,7811000,119070.12,390550,78110,Открытый аукцион в электронной форме,2023-10-31,2023-12-04,2023-12-11,2023-12-14,2023-12-14,78,21,5,18,21,-1,55.5726,37.48746,Железобетонные,Кирпичный,Из легкобетонных панелей,Нет данных,-1.0,2011.0,-1.0,2.0,Исправный,Отсутствует в пешей доступности,20.0,90.0,7.70170000020008e+16,Нет данных,0.0,Не включен в программу,Нет данных,Нет данных,https://www.roseltorg.ru/procedure/21000005000000016486,https://torgi.gov.ru/new/public/notices/view/21000005000000016486,https://investmoscow.ru/tenders/tender/19386446,https://flatinfo.ru/h_info1.asp?hid=204790
#ГП16939746,Продажа,Квартира,77:17:0120303:5892,Новомосковский,СП Сосенское,"г. Москва, п. Коммунарка, мкр. Эдальго, д. 4",43.0,3,11,17.0,0.0,64.7,7717000,119273.57,385850,77170,Открытый аукцион в электронной форме,2023-10-31,2023-12-04,2023-12-11,2023-12-14,2023-12-14,78,21,5,18,21,-1,55.5726,37.48746,Железобетонные,Кирпичный,Из легкобетонных панелей,Нет данных,-1.0,2011.0,-1.0,2.0,Исправный,Отсутствует в пешей доступности,20.0,90.0,7.70170000020008e+16,Нет данных,0.0,Не включен в программу,Нет данных,Нет данных,https://www.roseltorg.ru/procedure/21000005000000016497,https://torgi.gov.ru/new/public/notices/view/21000005000000016497,https://investmoscow.ru/tenders/tender/19386401,https://flatinfo.ru/h_info1.asp?hid=204790
#ГП16939735,Продажа,Квартира,77:17:0120303:4900,Новомосковский,СП Сосенское,"г. Москва, п. Коммунарка, мкр. Эдальго, д. 4",155.0,3,5,17.0,0.0,56.2,6836000,121637.01,341800,68360,Открытый аукцион в электронной форме,2023-10-31,2023-12-04,2023-12-11,2023-12-14,2023-12-14,78,21,5,18,21,-1,55.5726,37.48746,Железобетонные,Кирпичный,Из легкобетонных панелей,Нет данных,-1.0,2011.0,-1.0,2.0,Исправный,Отсутствует в пешей доступности,20.0,90.0,7.70170000020008e+16,Нет данных,0.0,Не включен в программу,Нет данных,Нет данных,https://www.roseltorg.ru/procedure/21000005000000016501,https://torgi.gov.ru/new/public/notices/view/21000005000000016501,https://investmoscow.ru/tenders/tender/19386185,https://flatinfo.ru/h_info1.asp?hid=204790
#ГП16939881,Продажа,Квартира,77:17:0120303:6804,Новомосковский,СП Сосенское,"г. Москва, п. Коммунарка, мкр. Эдальго, д. 4",19.0,2,5,17.0,0.0,64.9,7738000,119229.58,386900,77380,Открытый аукцион в электронной форме,2023-11-03,2024-01-15,2024-01-22,2024-01-25,2024-01-25,78,21,5,18,21,-1,55.5726,37.48746,Железобетонные,Кирпичный,Из легкобетонных панелей,Нет данных,-1.0,2011.0,-1.0,2.0,Исправный,Отсутствует в пешей доступности,20.0,90.0,7.70170000020008e+16,Нет данных,0.0,Не включен в программу,Нет данных,Нет данных,https://www.roseltorg.ru/procedure/21000005000000016613,https://torgi.gov.ru/new/public/notices/view/21000005000000016613,https://investmoscow.ru/tenders/tender/19393066,https://flatinfo.ru/h_info1.asp?hid=204790
